sample_num,timestamp_ms,acc_x(g),acc_y(g),acc_z(g),gyro_x(LSB),gyro_y(LSB),gyro_z(LSB)
1,0,0.026614,-0.147785,1.095263,2002.25,2146.20,245.75
2,98,0.046969,-0.272870,1.176090,2052.33,2231.28,206.83
3,198,0.065918,-0.378680,1.243622,1813.33,1871.28,186.83
4,298,0.083342,-0.471566,1.302616,1992.33,2176.28,192.83
5,398,0.098795,-0.548524,1.351517,2080.33,2253.28,213.83
6,498,0.114053,-0.616592,1.393595,2391.33,2739.28,305.83
7,598,0.122573,-0.677179,1.431101,2951.34,2896.29,-571.16
8,698,0.120807,-0.721079,1.461205,3173.35,2599.30,1078.85
9,798,0.135602,-0.762825,1.492873,6892.33,2799.28,1890.83
10,898,0.145138,-0.793530,1.523672,10140.35,4436.30,351.85
11,1008,0.142093,-0.782568,1.539213,14444.33,4220.28,1458.83
12,1108,0.143477,-0.702390,1.555059,15067.33,282.28,2718.83
13,1208,0.161922,-0.638851,1.578984,10709.35,-8040.70,2277.85
14,1308,0.179906,-0.573711,1.538859,11174.35,-4447.70,-3509.15
15,1418,0.195761,-0.528999,1.481791,-44.65,-3015.70,-2516.15
16,1518,0.206216,-0.494601,1.424586,-5507.66,5033.29,-439.16
17,1618,0.203073,-0.505627,1.404636,-8758.65,3469.30,2495.85
18,1718,0.225853,-0.541422,1.405293,-9080.65,4973.30,1925.85
19,1828,0.217732,-0.574154,1.430589,-3579.65,5092.30,302.85
20,1928,0.200959,-0.601500,1.454178,-2160.65,4237.30,1178.85
21,2028,0.193331,-0.627089,1.467637,-4001.65,3960.30,1749.85
22,2138,0.191571,-0.669145,1.498358,-5731.66,1888.29,458.84
23,2238,0.184289,-0.721135,1.523849,-3078.65,4384.30,524.85
24,2338,0.173193,-0.774316,1.541121,-3776.63,1506.32,-787.13
25,2438,0.160594,-0.841108,1.579570,-408.64,2193.31,-270.14
26,2538,0.142798,-0.898797,1.600478,1179.36,1246.31,1552.86
27,2648,0.155613,-0.948766,1.607189,2512.36,-1967.69,-1064.14
28,2748,0.173684,-0.982341,1.604051,4464.36,1683.31,-138.14
29,2848,0.192687,-1.006852,1.603342,5030.36,3127.31,137.86
30,2948,0.204282,-1.014081,1.619805,5015.37,216.32,-1962.13
31,3058,0.201118,-1.007829,1.617923,5061.37,733.32,-1772.13
32,3158,0.214615,-0.996913,1.608066,5448.36,1150.31,-474.14
33,3258,0.234108,-0.983898,1.595970,2137.38,1128.33,288.88
34,3358,0.251099,-0.978768,1.581331,916.37,2175.32,861.87
35,3468,0.260120,-1.005407,1.610690,2162.37,2414.32,-372.13
36,3568,0.254147,-1.003386,1.616163,1868.36,2254.31,339.86
37,3668,0.260148,-1.006137,1.610745,1769.37,812.32,993.87
38,3768,0.264534,-1.005105,1.613756,2080.37,2616.32,36.87
39,3878,0.267787,-1.007799,1.615895,1964.37,2123.32,353.87
40,3978,0.267219,-1.010436,1.615771,2057.38,2225.33,270.88
41,4078,0.269300,-1.013759,1.617333,2078.37,2303.32,283.87
42,4188,0.271838,-1.016546,1.617305,2018.37,2222.32,285.87
43,4288,0.274105,-1.018421,1.617520,2046.37,2227.32,300.87
44,4388,0.275994,-1.019044,1.618874,1984.36,2126.31,333.86
45,4488,0.273243,-1.019207,1.619622,2186.37,2371.32,259.87
46,4588,0.271491,-1.019621,1.619471,2007.36,2266.31,188.86
47,4698,0.271448,-1.021144,1.618903,2061.38,2265.33,256.88
48,4798,0.271887,-1.021451,1.619665,2076.36,2279.31,246.86
49,4898,0.274110,-1.022810,1.620496,2080.37,2290.32,290.87
50,4998,0.271861,-1.021895,1.621386,2053.38,2301.33,243.88
1,0,0.036304,-0.144414,1.094953,2042.37,2154.32,286.87
2,99,0.064013,-0.267166,1.175461,2011.36,2214.31,276.86
3,199,0.085168,-0.372768,1.239535,2238.38,2273.33,332.88
4,299,0.102234,-0.466815,1.301835,2395.38,1628.33,658.88
5,399,0.124943,-0.543239,1.354223,3012.40,1731.35,563.90
6,499,0.149062,-0.611037,1.404447,4702.38,1792.33,334.88
7,599,0.167804,-0.658815,1.438806,6165.38,1977.33,-15.12
8,699,0.188185,-0.699774,1.482422,7435.39,-471.66,-24.11
9,799,0.226877,-0.691907,1.522681,11182.37,1366.32,-1641.13
10,899,0.270074,-0.641239,1.579569,6149.36,4004.31,-2985.14
11,1009,0.209654,-0.602510,1.595753,5627.37,13360.32,-3693.13
12,1109,0.219436,-0.599181,1.545679,3366.38,1626.33,-3389.12
13,1209,0.176994,-0.596076,1.473691,3154.38,8544.33,-2437.12
14,1309,0.128321,-0.598857,1.432441,-4735.62,1630.33,-3275.12
15,1419,0.081638,-0.618597,1.423050,-7058.61,3024.34,-798.11
16,1519,0.050070,-0.665369,1.440776,-8415.61,-2903.66,-666.11
17,1619,0.044001,-0.724039,1.480654,-4928.61,2529.34,2372.89
18,1719,0.042101,-0.774258,1.515301,-2188.62,850.33,2394.88
19,1829,0.045706,-0.810901,1.525506,-820.61,2648.34,2573.89
20,1929,0.063436,-0.843201,1.530152,-393.62,325.33,543.88
21,2029,0.063290,-0.883016,1.535530,-1066.61,-2368.66,-539.11
22,2139,0.084297,-0.932495,1.560151,486.39,-6.66,107.89
23,2239,0.095598,-0.985356,1.588165,2575.39,-19.66,-379.11
24,2339,0.108737,-1.023495,1.610292,3505.38,2424.33,-1096.12
25,2439,0.125473,-1.045091,1.619707,4622.40,1996.35,-1054.10
26,2539,0.157550,-1.056728,1.623041,7082.39,1675.34,-1207.11
27,2649,0.157607,-1.041625,1.608077,6770.42,1228.37,-30.08
28,2749,0.178328,-1.024081,1.604311,1999.40,-841.65,227.90
29,2849,0.230694,-1.020577,1.672228,876.39,4758.34,2136.89
30,2949,0.221170,-1.006265,1.662630,607.39,2064.34,-1694.11
31,3059,0.197420,-1.006037,1.658591,2504.40,2839.35,429.90
32,3159,0.200670,-1.005313,1.660230,2434.40,2997.35,245.90
33,3259,0.170620,-0.992887,1.645767,1957.40,2693.35,30.90
34,3359,0.171883,-0.993458,1.641145,2263.38,2276.33,301.88
35,3469,0.173122,-0.990648,1.639065,2065.39,2255.34,262.89
36,3569,0.176977,-0.989687,1.638451,2059.39,2234.34,323.89
37,3669,0.182267,-0.987845,1.637380,2064.39,2268.34,453.89
38,3769,0.185409,-0.986956,1.636634,2010.39,2250.34,354.89
39,3879,0.185499,-0.983528,1.638052,2035.40,2249.35,241.90
40,3979,0.188449,-0.982683,1.637681,2055.39,2191.34,205.89
41,4079,0.190902,-0.982367,1.636652,2049.40,2296.35,348.90
42,4189,0.191376,-0.982410,1.635357,2063.39,2273.34,224.89
43,4289,0.191174,-0.981861,1.634969,2077.38,2257.33,248.88
44,4389,0.191167,-0.981394,1.634988,2068.39,2249.34,214.89
45,4489,0.192517,-0.981583,1.634601,2065.39,2256.34,279.89
46,4589,0.190789,-0.981909,1.634456,2004.39,2178.34,73.89
47,4699,0.189943,-0.981380,1.633654,2070.39,2271.34,363.89
48,4799,0.190249,-0.981571,1.633980,2055.39,2259.34,261.89
49,4899,0.191791,-0.981551,1.633690,2077.40,2200.35,318.90
50,4999,0.192388,-0.980764,1.633333,2025.38,2226.33,316.88
1,0,0.026967,-0.145695,1.095264,2256.39,2618.34,292.89
2,99,0.051976,-0.268895,1.176623,2013.41,2017.36,542.91
3,199,0.076823,-0.376966,1.247591,2183.40,2171.35,482.90
4,299,0.094793,-0.468204,1.303849,2205.40,2247.35,325.90
5,399,0.105362,-0.544950,1.350826,2454.39,2111.34,479.89
6,499,0.115481,-0.614286,1.398649,3643.40,1670.35,1686.90
7,599,0.131113,-0.669212,1.432834,6120.39,1939.34,904.89
8,699,0.141305,-0.731994,1.481245,7699.39,-710.66,1708.89
9,799,0.183387,-0.689612,1.511702,8939.41,-3922.64,-191.09
10,899,0.199124,-0.645513,1.615300,883.40,10751.35,-1454.10
11,1009,0.193457,-0.685116,1.659084,4698.40,8506.35,-630.10
12,1109,0.165624,-0.677946,1.591692,5535.40,3579.35,-3275.10
13,1209,0.146324,-0.657826,1.519302,-3223.59,1806.36,-3115.09
14,1309,0.120673,-0.671796,1.477016,-5940.59,2687.36,-2482.09
15,1419,0.079734,-0.721080,1.465352,-7725.60,-2140.65,-5030.10
16,1519,0.069161,-0.781428,1.477080,-8404.60,-1643.65,-1705.10
17,1619,0.086907,-0.839023,1.490474,-4900.61,2078.34,-327.11
18,1719,0.098861,-0.900997,1.510281,-3619.59,-1733.64,-623.09
19,1829,0.097339,-0.964899,1.526165,-1133.58,551.37,948.92
20,1929,0.116261,-1.027859,1.547431,1232.40,-280.65,1157.90
21,2029,0.134266,-1.078940,1.558438,5163.40,-902.65,1599.90
22,2139,0.154277,-1.109412,1.574276,7828.42,-703.63,1946.92
23,2239,0.197947,-1.134252,1.589570,7714.42,-878.63,657.92
24,2339,0.215712,-1.136726,1.602020,6713.42,3390.37,-389.08
25,2439,0.213545,-1.130533,1.611578,4418.41,2206.36,-2105.09
26,2539,0.214248,-1.105367,1.602636,4416.41,-1482.64,-1101.09
27,2649,0.223324,-1.102542,1.626182,3353.41,8532.36,2317.91
28,2749,0.224373,-1.100745,1.654253,2503.42,3859.37,-1513.08
29,2849,0.211294,-1.082317,1.653393,1603.42,2593.37,-538.08
30,2949,0.218469,-1.071743,1.648690,2083.41,2343.36,70.91
31,3059,0.222005,-1.058526,1.647548,2066.42,2291.37,213.92
32,3159,0.226328,-1.050807,1.645607,2095.41,2272.36,245.91
33,3259,0.228281,-1.042361,1.642968,2100.40,2270.35,210.90
34,3359,0.226718,-1.033661,1.642153,2052.40,2248.35,186.90
35,3469,0.224604,-1.027364,1.639996,2052.42,2257.37,221.92
36,3569,0.224473,-1.023074,1.637650,2071.43,2244.38,285.93
37,3669,0.223355,-1.019263,1.636901,2071.44,2260.39,238.94
38,3769,0.220371,-1.015145,1.636008,2045.41,2241.36,253.91
39,3879,0.219208,-1.012230,1.635011,2047.42,2234.37,307.92
40,3979,0.219556,-1.009039,1.634602,2045.40,2197.35,332.90
41,4079,0.222214,-1.006106,1.633614,2049.40,2199.35,347.90
42,4189,0.224400,-1.003852,1.633727,2046.40,2239.35,259.90
43,4289,0.226496,-1.001954,1.633364,2054.40,2236.35,268.90
44,4389,0.226813,-1.000267,1.633111,2037.40,2258.35,250.90
45,4489,0.226862,-0.998925,1.633244,2047.41,2216.36,290.91
46,4589,0.226593,-0.997656,1.633284,2031.40,2242.35,277.90
47,4699,0.226163,-0.996651,1.632439,2038.41,2236.36,265.91
48,4799,0.225908,-0.995924,1.632673,2048.42,2230.37,291.92
49,4899,0.225672,-0.995289,1.632341,2052.41,2229.36,253.91
50,4999,0.225142,-0.994492,1.632461,2039.42,2241.37,215.92
1,0,0.025319,-0.144706,1.095448,2047.41,2191.36,210.91
2,99,0.047719,-0.267432,1.176138,2151.41,2382.36,185.91
3,199,0.065349,-0.375045,1.248607,2287.40,2543.35,253.90
4,299,0.089289,-0.469702,1.310591,3332.40,3647.35,508.90
5,399,0.098871,-0.538661,1.364632,3917.41,4690.36,-47.09
6,499,0.097604,-0.596251,1.412287,4503.40,4376.35,642.90
7,599,0.129761,-0.637640,1.399511,3138.41,6312.36,-1458.09
8,699,0.072041,-0.663904,1.417838,5380.40,8505.35,-1011.10
9,799,0.003369,-0.690788,1.449438,4159.40,-3508.65,1912.90
10,899,-0.011532,-0.699246,1.425560,3998.41,-13183.64,2608.91
11,1009,0.073982,-0.665970,1.391091,6642.42,2019.37,1014.92
12,1109,0.115505,-0.664876,1.441717,1683.41,3082.36,1741.91
13,1209,0.169001,-0.695111,1.573538,7169.42,-33.63,-665.08
14,1309,0.208521,-0.655826,1.610512,11770.41,6785.36,-5431.09
15,1419,0.195641,-0.620567,1.582010,982.41,4879.36,-5224.09
16,1519,0.159478,-0.612020,1.548408,-1405.60,14006.35,839.90
17,1619,0.139508,-0.612408,1.482383,-6825.58,11223.37,-3313.08
18,1719,0.102830,-0.649945,1.447630,-8869.59,7504.36,-4722.09
19,1829,0.053381,-0.699284,1.435174,-9703.59,2552.36,-3010.09
20,1929,0.016512,-0.763340,1.438264,-8274.57,1504.38,-724.07
21,2029,-0.005872,-0.829123,1.444791,-6251.57,-993.62,-2560.07
22,2139,-0.019332,-0.888846,1.444571,-4805.58,-2063.63,-2761.08
23,2239,-0.025573,-0.964843,1.461999,-4065.58,-601.63,-1847.08
24,2339,-0.031812,-1.049070,1.471539,-945.58,-2870.63,-309.08
25,2439,-0.020489,-1.135256,1.497537,3401.41,-186.64,-585.09
26,2539,-0.012915,-1.196759,1.499275,7794.42,-1019.63,-2422.08
27,2649,0.049461,-1.206537,1.496980,12707.43,-4344.62,-459.07
28,2749,-0.019320,-1.299516,1.636002,6603.44,-662.61,823.94
29,2849,-0.060865,-1.351193,1.728884,7391.44,-2263.61,639.94
30,2949,0.002826,-1.311256,1.694107,8048.43,1732.38,-112.07
31,3059,0.067108,-1.260445,1.673647,5272.43,1339.38,851.93
32,3159,0.107539,-1.231281,1.656585,5874.45,1417.40,574.95
33,3259,0.163255,-1.185051,1.652392,5077.43,1784.38,1161.93
34,3359,0.179065,-1.147056,1.657452,4261.43,2862.38,242.93
35,3469,0.206163,-1.104341,1.654190,2380.43,1968.38,392.93
36,3569,0.226028,-1.078561,1.648543,2685.44,2355.39,14.94
37,3669,0.238903,-1.047293,1.645556,3085.41,2219.36,-232.09
38,3769,0.249097,-1.022032,1.645965,2063.44,2392.39,374.94
39,3879,0.251701,-1.000671,1.644170,2039.42,2307.37,881.92
40,3979,0.259297,-0.980884,1.644146,2038.42,2267.37,462.92
41,4079,0.267439,-0.963479,1.640335,1816.43,2425.38,108.93
42,4189,0.269122,-0.951908,1.641417,1845.42,2214.37,-357.08
43,4289,0.274966,-0.938190,1.637631,1610.44,2305.39,116.94
44,4389,0.280043,-0.929058,1.633845,1769.41,2248.36,261.91
45,4489,0.279396,-0.921240,1.633685,1604.44,2118.39,-111.06
46,4589,0.276704,-0.917341,1.633110,1524.43,2122.38,483.93
47,4699,0.276266,-0.916389,1.633811,1577.43,2042.38,193.93
48,4799,0.277779,-0.915397,1.634663,1462.43,2251.38,287.93
49,4899,0.278680,-0.916769,1.632733,1940.43,2295.38,228.93
50,4999,0.278165,-0.916635,1.632483,2112.42,2241.37,254.92
1,0,0.031399,-0.148533,1.095118,2043.42,2253.37,226.92
2,99,0.057282,-0.274585,1.175199,2060.41,2200.36,300.91
3,199,0.080180,-0.381747,1.243543,2000.43,2264.38,373.93
4,299,0.115024,-0.474098,1.304895,2232.42,2256.37,622.92
5,399,0.119080,-0.549941,1.353015,2256.42,2431.37,402.92
6,499,0.144464,-0.642387,1.400107,1946.42,2226.37,2714.92
7,599,0.156940,-0.696246,1.453574,5093.44,3266.39,-997.06
8,699,0.161978,-0.733073,1.453099,1131.42,4506.37,143.92
9,799,0.150843,-0.757985,1.477927,3948.43,5850.38,-167.07
10,899,0.050832,-0.807322,1.465540,4705.42,805.37,622.92
11,1009,0.044301,-0.787498,1.409089,5570.40,1715.35,-1252.10
12,1109,0.099523,-0.810142,1.476883,6196.42,-4335.63,33.92
13,1209,0.104165,-0.790608,1.501659,3857.43,1541.38,-1078.07
14,1309,0.140428,-0.788250,1.539399,3837.41,3507.36,-613.09
15,1419,0.161584,-0.783957,1.634979,10439.43,5047.38,16.93
16,1519,0.136702,-0.689396,1.679254,14271.42,2813.37,-2602.08
17,1619,0.114691,-0.613340,1.630846,3895.42,7400.37,-95.08
18,1719,0.125352,-0.620635,1.565932,-1998.58,17884.37,-476.08
19,1829,0.113687,-0.629381,1.499640,-3379.58,4288.37,-6380.08
20,1929,0.067645,-0.645549,1.454206,-5894.56,3170.39,-5138.06
21,2029,0.015032,-0.683205,1.439353,-8178.58,580.37,-2165.08
22,2139,-0.007624,-0.738174,1.459853,-6680.56,99.39,-907.06
23,2239,-0.027322,-0.789494,1.482532,-2931.58,1123.37,-2496.08
24,2339,-0.056131,-0.829436,1.486100,-2543.56,1095.39,225.94
25,2439,-0.063993,-0.863697,1.480178,-2682.56,1009.39,1.94
26,2539,-0.070328,-0.905234,1.479905,-3722.56,-1715.61,-506.06
27,2649,-0.072159,-0.961102,1.501042,-2344.55,-2853.60,-899.05
28,2749,-0.050316,-1.027982,1.519118,1498.42,-4068.63,-582.08
29,2849,-0.022118,-1.083109,1.532944,3872.43,-2440.62,627.93
30,2949,-0.005804,-1.133500,1.558759,6889.43,-415.62,-326.07
31,3059,-0.001109,-1.141451,1.551369,8447.45,1937.40,1170.95
32,3159,0.031903,-1.137260,1.546918,4755.43,-1716.62,867.93
33,3259,0.067214,-1.137359,1.558515,6583.43,2612.38,1171.93
34,3359,0.095855,-1.118840,1.565773,5374.44,2936.39,1808.94
35,3469,0.129539,-1.095940,1.579962,4142.44,6034.39,1633.94
36,3569,0.150003,-1.084037,1.587225,2427.43,2943.38,327.93
37,3669,0.154251,-1.066411,1.593308,1544.45,1301.40,341.95
38,3769,0.167145,-1.056429,1.599412,1221.43,507.38,152.93
39,3879,0.198704,-1.041883,1.618296,2002.43,1872.38,1964.93
40,3979,0.206010,-1.038839,1.614939,2104.43,2277.38,852.93
41,4079,0.218190,-1.035867,1.610657,2136.44,2784.39,99.94
42,4189,0.217063,-1.026841,1.615752,1867.44,2107.39,321.94
43,4289,0.220462,-1.022464,1.619239,1957.44,2107.39,580.94
44,4389,0.224870,-1.019312,1.619091,2131.42,3022.37,-104.08
45,4489,0.223802,-1.013721,1.620028,2223.44,2984.39,282.94
46,4589,0.221741,-1.007870,1.621483,2052.45,2184.40,385.95
47,4699,0.218451,-1.004233,1.617226,1385.44,1160.39,428.94
48,4799,0.224883,-1.003871,1.620914,2124.43,2405.38,99.93
49,4899,0.235971,-1.005485,1.623060,2575.43,3058.38,202.93
50,4999,0.235160,-1.001858,1.625177,2813.43,3726.38,318.93
1,0,0.040225,-0.148350,1.095283,2062.43,2356.38,65.93
2,99,0.075532,-0.276058,1.174571,2112.42,2269.37,153.92
3,199,0.101607,-0.385599,1.243760,2386.43,2068.38,481.93
4,299,0.127286,-0.476805,1.303101,2784.42,2140.37,477.92
5,399,0.165007,-0.552407,1.357057,3507.43,2082.38,170.93
6,499,0.169751,-0.617237,1.403542,5073.42,1684.37,848.92
7,599,0.181235,-0.669192,1.452759,3874.43,2421.38,261.93
8,699,0.184882,-0.698724,1.459474,2328.44,3276.39,187.94
9,799,0.163096,-0.726702,1.464889,3323.41,4917.36,-276.09
10,899,0.157854,-0.759564,1.508072,4600.44,-1416.61,407.94
11,1009,0.165136,-0.764353,1.499074,7385.43,1075.38,491.93
12,1109,0.159185,-0.735977,1.503547,3577.42,4766.37,-1223.08
13,1209,0.152406,-0.739103,1.531922,3444.44,1359.39,-894.06
14,1309,0.203149,-0.735608,1.558623,3642.42,5250.37,680.92
15,1419,0.197393,-0.738717,1.642293,15242.43,4246.38,-2606.07
16,1519,0.178584,-0.657954,1.645572,13881.44,735.39,-3133.06
17,1619,0.150437,-0.568725,1.587256,510.43,5043.38,-1931.07
18,1719,0.109997,-0.546347,1.522619,-3662.56,12318.39,72.94
19,1829,0.094483,-0.558985,1.446857,-7795.57,6599.38,-3324.07
20,1929,0.085269,-0.608912,1.416555,-9409.57,2789.38,-5790.07
21,2029,0.054934,-0.655415,1.412495,-8379.56,3052.39,-1978.06
22,2139,0.005693,-0.703987,1.417871,-5863.57,-503.62,-2011.07
23,2239,0.001173,-0.760215,1.443405,-5846.57,-972.62,-450.07
24,2339,0.004692,-0.821669,1.467984,-4545.56,-999.61,-1200.06
25,2439,-0.002661,-0.883810,1.492539,-2811.55,-227.60,-981.05
26,2539,-0.007777,-0.942087,1.511158,-15.55,-1190.60,-167.05
27,2649,0.005142,-1.002132,1.530244,3344.45,-1433.60,-99.05
28,2749,0.030112,-1.050277,1.539197,5814.45,235.40,-939.05
29,2849,0.060822,-1.081845,1.553106,3199.44,1774.39,516.94
30,2949,0.143101,-1.067991,1.541272,11415.44,-5621.61,-792.06
31,3059,0.146718,-1.076485,1.545184,6220.44,-1781.61,422.94
32,3159,0.156696,-1.083851,1.561930,4949.45,-898.60,35.95
33,3259,0.169224,-1.079419,1.568841,5128.45,-1772.60,72.95
34,3359,0.177546,-1.078636,1.591707,5653.44,1945.39,-393.06
35,3469,0.197365,-1.053068,1.592118,6004.45,1807.40,488.95
36,3569,0.224484,-1.029413,1.605908,3978.45,1827.40,550.95
37,3669,0.240100,-1.004601,1.605489,1807.44,2358.39,107.94
38,3769,0.247221,-0.989534,1.610535,1517.45,2361.40,79.95
39,3879,0.252725,-0.973340,1.614439,2392.45,2046.40,430.95
40,3979,0.258485,-0.963310,1.614810,2161.47,1943.42,702.97
41,4079,0.266199,-0.953815,1.614375,2161.45,1874.40,834.95
42,4189,0.273983,-0.943931,1.618179,1759.44,2587.39,297.94
43,4289,0.275821,-0.936481,1.621395,1984.45,2047.40,831.95
44,4389,0.282748,-0.930864,1.622919,2114.44,2068.39,747.94
45,4489,0.292298,-0.921786,1.624618,1619.45,2383.40,643.95
46,4589,0.297303,-0.919398,1.625275,1226.44,2332.39,341.94
47,4699,0.297454,-0.920738,1.624441,1397.42,2585.37,175.92
48,4799,0.295936,-0.923066,1.624611,1861.44,2376.39,228.94
49,4899,0.297209,-0.923380,1.625214,1955.44,2089.39,514.94
50,4999,0.295397,-0.923334,1.625397,1674.44,2269.39,344.94
1,0,0.031472,-0.150364,1.095027,2068.43,2246.38,290.93
2,99,0.060934,-0.278265,1.175213,2038.43,2290.38,314.93
3,199,0.083797,-0.388335,1.245899,2155.44,2298.39,290.94
4,299,0.111068,-0.485319,1.306256,2991.43,2290.38,925.93
5,399,0.118775,-0.567151,1.360636,6523.43,2713.38,917.93
6,499,0.144626,-0.625539,1.403545,7721.44,2958.39,-16.06
7,599,0.143089,-0.661363,1.430918,10626.44,3140.39,-1453.06
8,699,0.152566,-0.656913,1.447445,7690.42,2616.37,184.92
9,799,0.172085,-0.659631,1.485078,4516.43,3306.38,649.93
10,899,0.168168,-0.648813,1.490534,3348.44,3959.39,-830.06
11,1009,0.122176,-0.662524,1.504675,6018.44,-507.61,1530.94
12,1109,0.155225,-0.641988,1.492085,7559.45,-5020.60,1886.95
13,1209,0.184966,-0.624642,1.532892,3605.44,747.39,2327.94
14,1309,0.212131,-0.590764,1.561223,3685.44,4213.39,481.94
15,1419,0.243973,-0.545231,1.618136,-635.57,9787.38,-467.07
16,1519,0.226252,-0.519547,1.649263,-2627.55,13985.40,-1936.05
17,1619,0.166128,-0.543822,1.615663,-6058.54,7666.41,-897.04
18,1719,0.128094,-0.578958,1.565495,2098.43,5511.38,-253.07
19,1829,0.096316,-0.603092,1.474990,-3199.56,2015.39,-6485.06
20,1929,0.052422,-0.645340,1.449696,-7184.55,1876.40,-2112.05
21,2029,0.023315,-0.696156,1.461540,-6432.55,-595.60,-745.05
22,2139,0.009781,-0.754291,1.485010,-5814.55,-184.60,-1799.05
23,2239,-0.002438,-0.815534,1.501170,-4204.55,465.40,-352.05
24,2339,-0.008099,-0.878523,1.513935,-2451.56,-1481.61,-437.06
25,2439,-0.004580,-0.945319,1.530535,578.45,-3817.60,-1089.05
26,2539,0.011906,-0.997830,1.546385,4296.45,-1356.60,-246.05
27,2649,0.039249,-1.043307,1.567492,4492.45,-1865.60,-90.05
28,2749,0.052054,-1.077110,1.576516,7561.45,-78.60,159.95
29,2849,0.078044,-1.083393,1.581550,6834.46,-301.59,460.96
30,2949,0.107405,-1.076997,1.585060,5594.45,1004.40,3.95
31,3059,0.104567,-1.104995,1.643561,3372.46,175.41,432.96
32,3159,0.133428,-1.081846,1.642292,4786.46,1852.41,434.96
33,3259,0.150911,-1.062828,1.642367,4478.45,1378.40,416.95
34,3359,0.165588,-1.041389,1.638749,4207.44,2046.39,321.94
35,3469,0.197656,-1.014872,1.632031,2342.45,2102.40,15.95
36,3569,0.209899,-0.995939,1.629654,2465.46,1868.41,79.96
37,3669,0.222064,-0.973346,1.629720,4014.45,338.40,-359.05
38,3769,0.269373,-0.940280,1.626645,2427.46,1780.41,334.96
39,3879,0.293728,-0.924663,1.619563,-426.55,5463.40,301.95
40,3979,0.262868,-0.924297,1.626710,1316.47,2225.42,-81.03
41,4079,0.273863,-0.918529,1.627804,2068.46,1860.41,191.96
42,4189,0.279198,-0.917142,1.629740,1961.45,2402.40,161.95
43,4289,0.280491,-0.912960,1.628768,2069.45,2250.40,272.95
44,4389,0.280547,-0.910138,1.627850,2010.46,2291.41,274.96
45,4489,0.286344,-0.908216,1.626905,1570.45,2356.40,264.95
46,4589,0.288195,-0.910298,1.623960,1565.45,2770.40,-37.05
47,4699,0.290355,-0.908480,1.624917,1982.46,2219.41,313.96
48,4799,0.292319,-0.908069,1.624448,2087.45,2207.40,233.95
49,4899,0.295728,-0.906493,1.626174,1908.46,2334.41,145.96
50,4999,0.294798,-0.907773,1.626799,1892.44,2307.39,222.94
1,0,0.039676,-0.155838,1.092097,3037.44,2755.39,-639.06
2,99,0.053295,-0.266182,1.168860,4116.44,1831.39,-594.06
3,199,0.084189,-0.357594,1.234804,1342.44,2878.39,-244.06
4,299,0.113855,-0.449118,1.292999,2417.44,1508.39,1097.94
5,399,0.140883,-0.519974,1.344625,2917.45,1778.40,725.95
6,499,0.174496,-0.579323,1.390228,2286.42,2627.37,111.92
7,599,0.191897,-0.635482,1.430584,2761.45,2031.40,714.95
8,699,0.209729,-0.687740,1.464649,5288.45,-306.60,2886.95
9,799,0.245649,-0.727197,1.500709,8556.45,2561.40,2534.95
10,899,0.269608,-0.740246,1.528228,11856.45,4116.40,217.95
11,1009,0.265547,-0.687837,1.556893,14814.46,-8197.59,-4492.05
12,1109,0.319480,-0.588266,1.560860,7273.45,8472.40,-5044.05
13,1209,0.256760,-0.549590,1.577361,-449.55,14538.40,-2599.05
14,1309,0.278119,-0.573606,1.580163,4094.45,6816.40,1306.95
15,1419,0.223837,-0.540352,1.474878,-4222.54,1774.41,-3588.04
16,1519,0.209997,-0.538489,1.423069,-10193.54,1900.41,-3859.04
17,1619,0.150901,-0.570781,1.408511,-14942.55,3840.40,-1822.05
18,1719,0.129764,-0.632780,1.425086,-9196.55,2386.40,-1814.05
19,1829,0.086346,-0.709376,1.444338,-7981.56,2314.39,1343.94
20,1929,0.057662,-0.788635,1.480204,-4469.54,-1142.59,275.96
21,2029,0.055859,-0.853406,1.487215,-2154.54,-416.59,-615.04
22,2139,0.065092,-0.908150,1.490666,-4622.54,3192.41,1577.96
23,2239,0.062997,-0.971729,1.494533,-3663.55,497.40,-485.05
24,2339,0.066984,-1.050546,1.496850,-1885.55,-1539.60,-269.05
25,2439,0.067774,-1.133543,1.509293,1510.46,-1699.59,1297.96
26,2539,0.054492,-1.189443,1.516042,4171.46,-704.59,-12.04
27,2649,0.103024,-1.216120,1.487447,12645.46,-6317.59,-3222.04
28,2749,0.130853,-1.220375,1.481562,8561.46,2343.41,1214.96
29,2849,0.138671,-1.218718,1.487692,7878.47,795.42,-304.03
30,2949,0.175546,-1.215589,1.527583,10306.47,3464.42,525.97
31,3059,0.196801,-1.171822,1.538401,5258.48,-556.57,118.98
32,3159,0.225909,-1.148975,1.548951,5535.47,2052.42,1246.97
33,3259,0.241019,-1.125307,1.571816,5762.47,1473.42,1093.97
34,3359,0.250109,-1.089992,1.576530,3838.46,1713.41,628.96
35,3469,0.263658,-1.055506,1.583942,3304.47,1887.42,144.97
36,3569,0.271568,-1.029288,1.589382,1940.47,2602.42,-0.03
37,3669,0.278877,-1.010664,1.594519,2239.47,1970.42,99.97
38,3769,0.283515,-0.991594,1.596871,2568.46,1850.41,-512.04
39,3879,0.289069,-0.973222,1.600701,3047.47,995.42,245.97
40,3979,0.307724,-0.954476,1.599452,1976.46,2318.41,473.96
41,4079,0.305434,-0.943797,1.605440,2273.46,2009.41,158.96
42,4189,0.315501,-0.928823,1.605641,3021.47,975.42,251.97
43,4289,0.323343,-0.913203,1.604915,2020.47,2392.42,133.97
44,4389,0.326749,-0.904339,1.606568,1956.45,2362.40,259.95
45,4489,0.332299,-0.893069,1.606929,2005.46,2258.41,346.96
46,4589,0.332219,-0.885448,1.607859,1999.45,2250.40,321.95
47,4699,0.332975,-0.880180,1.608704,1770.44,2889.39,194.94
48,4799,0.335138,-0.877679,1.610979,1928.47,2431.42,217.97
49,4899,0.339558,-0.873850,1.610660,2154.45,2112.40,261.95
50,4999,0.341850,-0.871035,1.610152,1881.47,2400.42,199.97
1,0,0.027317,-0.142691,1.094624,3045.47,-168.58,-878.03
2,99,0.045482,-0.260316,1.165552,3112.47,2675.42,-572.03
3,199,0.057773,-0.364107,1.233659,2387.46,463.41,-397.04
4,299,0.086129,-0.449856,1.295999,1372.47,215.42,1525.97
5,399,0.093440,-0.535799,1.370027,4017.46,2439.41,1909.96
6,499,0.080154,-0.572980,1.388108,13898.46,8459.41,339.96
7,599,0.178870,-0.558038,1.458134,12713.45,-5058.60,2127.95
8,699,0.256407,-0.519575,1.643313,17123.46,-1924.59,-1991.04
9,799,0.289867,-0.486424,1.595224,15892.46,5761.41,-11625.04
10,899,0.259330,-0.498876,1.459885,6377.47,19728.42,-8377.03
11,1009,0.194298,-0.482086,1.344883,-8110.54,4770.41,-6605.04
12,1109,0.121591,-0.490519,1.299225,-14792.52,-736.57,-2621.02
13,1209,0.072240,-0.523963,1.302384,-13342.52,8710.43,7574.98
14,1309,0.038715,-0.582384,1.322280,-13260.54,5415.41,1257.96
15,1419,-0.026403,-0.653281,1.352138,-8323.53,-1106.58,-4632.03
16,1519,-0.039107,-0.726031,1.381582,-7244.52,-429.57,779.98
17,1619,-0.038334,-0.801126,1.416003,-4236.54,-717.59,-644.04
18,1719,-0.033081,-0.868747,1.428598,-2225.52,-192.57,-2058.02
19,1829,-0.031856,-0.953892,1.468527,322.48,215.43,-1062.02
20,1929,-0.024773,-1.026009,1.489357,3396.47,-399.58,-944.03
21,2029,-0.020253,-1.078702,1.501954,7732.48,-2116.57,-183.02
22,2139,0.000562,-1.100237,1.507735,8324.47,-1299.58,835.97
23,2239,0.028838,-1.094226,1.514480,3491.47,-1018.58,-250.03
24,2339,0.068235,-1.105357,1.536309,6101.47,2679.42,-591.03
25,2439,0.093868,-1.081256,1.534209,4274.48,1621.43,-351.02
26,2539,0.109284,-1.076499,1.545406,4172.46,55.41,-387.04
27,2649,0.123834,-1.066449,1.565965,4202.48,829.43,-538.02
28,2749,0.155610,-1.048641,1.574248,2601.47,1698.42,-163.03
29,2849,0.176798,-1.042495,1.583413,2417.47,1945.42,723.97
30,2949,0.190761,-1.029929,1.585307,3149.48,2463.43,1812.98
31,3059,0.220811,-1.018771,1.586532,2597.48,1573.43,-296.02
32,3159,0.228007,-1.011759,1.595356,2867.48,5655.43,-850.02
33,3259,0.223559,-0.997138,1.601189,4860.49,901.44,-1013.01
34,3359,0.236385,-0.967626,1.596169,4363.47,17.42,-455.03
35,3469,0.248294,-0.952997,1.593128,694.47,3946.42,2246.97
36,3569,0.260230,-0.949992,1.601072,1215.47,1698.42,120.97
37,3669,0.255379,-0.948005,1.608392,664.47,1012.42,491.97
38,3769,0.260942,-0.958200,1.626241,2541.47,658.42,106.97
39,3879,0.243130,-0.941743,1.624970,3886.48,6310.43,2664.98
40,3979,0.251300,-0.936160,1.619660,-125.52,-602.57,544.98
41,4079,0.257163,-0.924328,1.606284,1939.47,3677.42,2020.97
42,4189,0.270918,-0.918811,1.613646,1693.46,928.41,766.96
43,4289,0.288194,-0.920202,1.613678,1590.47,1221.42,-733.03
44,4389,0.292881,-0.923636,1.610007,1286.47,6546.42,676.97
45,4489,0.283828,-0.925291,1.616115,1250.47,2611.42,-753.03
46,4589,0.278916,-0.930727,1.625573,2032.46,2696.41,-1386.04
47,4699,0.270219,-0.933369,1.619971,2120.48,1734.43,396.98
48,4799,0.271157,-0.926991,1.612719,2093.47,1547.42,-856.03
49,4899,0.264044,-0.932245,1.621515,2073.47,2889.42,425.97
50,4999,0.263455,-0.935593,1.621282,2071.48,1634.43,108.98
1,0,0.039768,-0.137820,1.095155,1702.47,2484.42,906.97
2,99,0.076190,-0.258099,1.178564,1879.48,2745.43,345.98
3,199,0.102057,-0.351528,1.248089,2158.47,2498.42,123.97
4,299,0.124009,-0.433543,1.305628,1586.48,1176.43,395.98
5,399,0.144883,-0.507046,1.356550,1967.48,2093.43,25.98
6,499,0.160117,-0.568534,1.400457,2241.48,2885.43,-396.02
7,609,0.186927,-0.636437,1.436313,4996.47,1614.42,-303.03
8,709,0.186059,-0.681795,1.453112,8524.47,1197.42,-2474.03
9,809,0.192333,-0.680487,1.466275,7777.48,-4097.57,-736.02
10,909,0.220939,-0.685271,1.487717,8985.47,7499.42,3438.97
11,1019,0.249796,-0.673316,1.495140,9437.47,-1621.58,312.97
12,1119,0.271321,-0.637482,1.493539,5664.49,3033.44,-501.01
13,1219,0.277771,-0.613029,1.507394,4613.49,4382.44,-1813.01
14,1319,0.281733,-0.566500,1.531934,8272.48,3167.43,-571.02
15,1429,0.284350,-0.512906,1.556491,8783.47,4086.42,-1547.03
16,1529,0.278097,-0.446404,1.553817,9395.48,4515.43,-1357.02
17,1629,0.235098,-0.289883,1.552973,5115.47,6101.42,-1847.03
18,1729,0.196206,-0.300011,1.471341,-15247.52,6547.43,5995.98
19,1839,0.211744,-0.393653,1.430701,-13697.51,12206.44,8521.99
20,1939,0.208344,-0.475336,1.367520,-2320.50,15546.45,2417.00
21,2039,0.167715,-0.522575,1.344101,-6443.51,3368.44,-6846.01
22,2149,0.114999,-0.576790,1.368104,-8738.51,-4061.56,-5783.01
23,2249,0.077514,-0.640104,1.408978,-4467.51,2070.44,-1391.01
24,2349,0.083665,-0.719884,1.442073,-6329.50,-1401.55,-1286.00
25,2449,0.086568,-0.803481,1.480897,-3770.50,1633.45,-2749.00
26,2549,0.093557,-0.873184,1.480883,-1561.52,3989.43,-1398.02
27,2659,0.094170,-0.950852,1.496930,-2241.51,1121.44,308.99
28,2759,0.095753,-1.019451,1.505150,386.49,576.44,92.99
29,2859,0.107609,-1.076277,1.509152,952.48,178.43,-1624.02
30,2959,0.121330,-1.135676,1.522094,1586.50,1241.45,-1603.00
31,3069,0.128123,-1.178675,1.525221,6376.49,2060.44,-1546.01
32,3169,0.144352,-1.208780,1.532072,7031.49,3182.44,-413.01
33,3269,0.138096,-1.210894,1.525517,8802.49,-1418.56,-3625.01
34,3369,0.195841,-1.203353,1.541442,7729.50,597.45,905.00
35,3479,0.195742,-1.181435,1.545439,5448.48,1936.43,43.98
36,3579,0.208987,-1.166594,1.557112,6108.49,1229.44,657.99
37,3679,0.230225,-1.132501,1.568628,6870.50,1073.45,599.00
38,3779,0.236559,-1.099512,1.577153,6457.49,1919.44,395.99
39,3889,0.244542,-1.042101,1.582842,3086.49,2237.44,1337.99
40,3989,0.260612,-1.023569,1.586415,2010.49,2589.44,-15.01
41,4089,0.270132,-0.996832,1.590898,2242.47,1983.42,-6.03
42,4199,0.276229,-0.982051,1.593665,2104.47,2210.42,46.97
43,4299,0.287362,-0.965788,1.598379,2047.49,2203.44,-80.01
44,4399,0.290270,-0.951032,1.603027,1948.48,2160.43,307.98
45,4499,0.297045,-0.940997,1.605842,2091.49,2104.44,94.99
46,4599,0.301137,-0.935415,1.606734,2002.48,2410.43,78.98
47,4709,0.305934,-0.921955,1.609579,2160.48,1864.43,602.98
48,4809,0.303566,-0.913737,1.611046,2057.48,2277.43,179.98
49,4909,0.305454,-0.905817,1.613940,2063.50,2133.45,378.00
50,5009,0.307864,-0.900294,1.614918,2015.50,2280.45,256.00
1,0,0.054564,-0.134579,1.100649,2006.49,2290.44,222.99
2,99,0.094992,-0.246316,1.179480,2042.49,2208.44,322.99
3,199,0.130637,-0.339645,1.245663,1985.47,2927.42,1082.97
4,299,0.155589,-0.428771,1.305562,2451.48,3495.43,2288.98
5,399,0.173887,-0.503630,1.355652,4663.48,2192.43,2256.98
6,499,0.210863,-0.562610,1.393999,5822.48,-892.57,973.98
7,599,0.240553,-0.598094,1.427821,7951.48,2890.43,-68.02
8,699,0.258833,-0.616867,1.444393,7942.49,1420.44,-854.01
9,799,0.289861,-0.623064,1.457783,6744.50,1084.45,-1665.00
10,899,0.304278,-0.617601,1.457538,10021.49,4346.44,-1908.01
11,1009,0.298533,-0.580585,1.447368,7572.48,4606.43,-1947.02
12,1109,0.285465,-0.532862,1.452311,3222.48,6295.43,-1889.02
13,1209,0.251432,-0.492608,1.478136,5429.48,5214.43,-54.02
14,1309,0.235889,-0.447223,1.496042,9287.49,1029.44,173.99
15,1419,0.229270,-0.352890,1.487787,9265.50,2481.45,-1609.00
16,1519,0.229320,-0.237990,1.454568,2453.48,-3557.57,-3276.02
17,1619,0.257963,-0.228417,1.455336,-6770.52,11834.43,1524.98
18,1719,0.247208,-0.312181,1.410048,-11874.51,12524.44,3019.99
19,1829,0.197326,-0.360437,1.315174,-11162.51,9423.44,-7347.01
20,1929,0.133229,-0.439467,1.308873,-14602.50,-5217.55,-3650.00
21,2029,0.088725,-0.523123,1.336402,-9298.50,4114.45,-1832.00
22,2139,0.062872,-0.601078,1.350556,-8781.51,-1396.56,-2401.01
23,2239,0.059664,-0.699237,1.392029,-9366.52,-1752.57,2086.98
24,2339,0.040715,-0.801550,1.434606,-3893.51,-867.56,-651.01
25,2439,0.027520,-0.891427,1.456752,-1524.51,-2172.56,221.99
26,2539,0.041481,-0.978645,1.473452,-401.52,-560.57,159.98
27,2649,0.050107,-1.048623,1.488251,3294.49,-1217.56,-347.01
28,2749,0.071721,-1.106146,1.509199,4239.49,-1363.56,-1074.01
29,2849,0.104540,-1.124498,1.485842,6234.50,-2931.55,-2395.00
30,2949,0.139065,-1.144107,1.480857,5273.49,2522.44,1429.99
31,3059,0.122928,-1.234987,1.597213,6882.51,-516.54,-1727.99
32,3159,0.135926,-1.239726,1.606668,7799.50,2727.45,-1416.00
33,3259,0.157944,-1.225241,1.612948,9007.51,691.46,-865.99
34,3359,0.174790,-1.184274,1.612609,8420.50,2074.45,-1102.00
35,3469,0.185466,-1.126344,1.613145,6843.50,1373.45,402.00
36,3569,0.207284,-1.066959,1.608401,4167.50,-8.55,1905.00
37,3669,0.227130,-1.027578,1.604624,1300.50,3000.45,1048.00
38,3769,0.228270,-1.010144,1.611924,1763.50,2745.45,-61.00
39,3879,0.239621,-0.987836,1.614138,2295.50,1756.45,504.00
40,3979,0.250222,-0.966605,1.615451,2228.48,2040.43,227.98
41,4079,0.258573,-0.949253,1.615652,1977.49,2271.44,311.99
42,4189,0.266880,-0.934706,1.616702,1920.50,2303.45,204.00
43,4289,0.274473,-0.925014,1.617247,1981.51,2345.46,210.01
44,4389,0.281695,-0.914780,1.617563,2022.50,2302.45,136.00
45,4489,0.288767,-0.906081,1.619187,1960.49,2282.44,106.99
46,4589,0.293882,-0.899383,1.619670,1913.49,2284.44,363.99
47,4699,0.296563,-0.893397,1.622187,2113.49,2103.44,347.99
48,4799,0.303182,-0.889132,1.623080,2001.50,2313.45,8.00
49,4899,0.304505,-0.889645,1.624682,2072.49,2211.44,-132.01
50,4999,0.305867,-0.888324,1.625147,2015.49,2256.44,-177.01
1,0,0.013640,-0.154080,1.104933,1693.49,-1522.56,688.99
2,99,0.047389,-0.275343,1.181511,2408.49,1688.44,2551.99
3,199,0.071846,-0.374700,1.253157,2014.48,2616.43,2566.98
4,299,0.099098,-0.459666,1.321105,2695.50,2773.45,1406.00
5,399,0.099979,-0.525112,1.379484,3820.50,2405.45,870.00
6,499,0.109883,-0.585849,1.421727,5946.50,5363.45,-544.00
7,599,0.121963,-0.632752,1.437913,7996.49,3814.44,-1717.01
8,699,0.116246,-0.661377,1.439312,8348.50,2613.45,-2044.00
9,799,0.129808,-0.687631,1.463700,10659.51,1487.46,3240.01
10,899,0.127913,-0.659025,1.468427,12281.51,788.46,-783.99
11,1009,0.119400,-0.616216,1.445162,9211.50,-1340.55,-4413.00
12,1109,0.105791,-0.554853,1.440657,9585.50,-5712.55,-1061.00
13,1209,0.147910,-0.471017,1.439905,7097.50,-3880.55,5095.00
14,1309,0.214125,-0.381739,1.457374,3763.48,2490.43,4304.98
15,1419,0.269346,-0.278168,1.474072,1699.49,10989.44,-3648.01
16,1519,0.202483,-0.178157,1.443241,-6362.50,16697.45,-6761.00
17,1619,0.185439,-0.266548,1.383653,-15512.50,14157.45,1274.00
18,1719,0.143339,-0.383246,1.342232,-10633.51,13300.44,3219.99
19,1829,0.087743,-0.470939,1.323303,-7545.49,1609.46,-8892.99
20,1929,0.030616,-0.541799,1.314208,-10395.50,4436.45,-733.00
21,2029,0.001194,-0.637112,1.357691,-9139.49,1173.46,-3849.99
22,2139,-0.023541,-0.734699,1.379729,-5364.49,378.46,-3871.99
23,2239,-0.046891,-0.831748,1.410235,-5305.49,638.46,-1853.99
24,2339,-0.055203,-0.919036,1.421352,-1696.49,-764.54,-1767.99
25,2439,-0.065344,-1.008887,1.434921,-218.50,-528.55,-2434.00
26,2539,-0.058126,-1.085608,1.448725,3638.50,-1475.55,-2314.00
27,2649,-0.041773,-1.146738,1.464927,5725.51,-632.54,-1632.99
28,2749,-0.020036,-1.178025,1.462640,4719.50,-1082.55,-964.00
29,2849,0.069064,-1.184497,1.422060,8442.50,3052.45,-353.00
30,2949,0.075183,-1.176685,1.420289,7728.51,1741.46,1930.01
31,3059,0.040064,-1.214851,1.494955,5363.51,-532.54,-744.99
32,3159,0.061501,-1.209097,1.507903,6117.51,569.46,-1056.99
33,3259,0.104551,-1.195252,1.530242,9620.51,-753.54,-622.99
34,3359,0.122485,-1.141296,1.547748,7581.52,2195.47,-718.98
35,3469,0.155107,-1.107683,1.562243,2834.53,1280.48,953.03
36,3569,0.172599,-1.085466,1.573813,4815.51,1512.46,791.01
37,3669,0.198344,-1.039463,1.587987,3788.51,1051.46,1484.01
38,3769,0.211914,-1.007447,1.584142,1393.51,2743.46,461.01
39,3879,0.224089,-0.991092,1.589168,2140.51,1958.46,375.01
40,3979,0.237789,-0.972155,1.593476,2190.51,2086.46,352.01
41,4079,0.249727,-0.959629,1.597322,2056.51,2096.46,307.01
42,4189,0.261998,-0.946692,1.601964,2076.52,2176.47,278.02
43,4289,0.273674,-0.936868,1.605800,2193.51,1823.46,354.01
44,4389,0.282078,-0.924765,1.609683,2148.50,1949.45,540.00
45,4489,0.292096,-0.915136,1.610456,2026.51,2038.46,132.01
46,4589,0.298433,-0.906346,1.610290,1813.51,2144.46,-334.99
47,4699,0.296880,-0.904131,1.611595,2010.51,2317.46,530.01
48,4799,0.302005,-0.898054,1.611386,2527.52,1878.47,516.02
49,4899,0.308834,-0.892798,1.612930,1975.51,2325.46,262.01
50,4999,0.308705,-0.889154,1.613876,2042.50,2221.45,304.00
1,0,0.044969,-0.131173,1.093544,2116.51,2197.46,284.01
2,99,0.085244,-0.241846,1.173368,2298.50,2026.45,469.00
3,199,0.118544,-0.334490,1.240926,2054.50,2401.45,25.00
4,299,0.145383,-0.415068,1.298551,1969.50,2347.45,53.00
5,399,0.163510,-0.484695,1.347020,2041.50,2131.45,413.00
6,499,0.185747,-0.540967,1.390397,1908.52,2436.47,488.02
7,599,0.208091,-0.590189,1.423185,1249.51,3147.46,1283.01
8,699,0.221188,-0.645047,1.457829,1908.51,5075.46,1417.01
9,799,0.248524,-0.697718,1.500937,4536.49,176.44,1590.99
10,899,0.254806,-0.719235,1.518297,6417.52,8525.47,-191.98
11,1009,0.239526,-0.735766,1.528384,7436.51,-619.54,-882.99
12,1109,0.238624,-0.734528,1.523353,8460.51,482.46,-1.99
13,1209,0.248295,-0.725144,1.524900,6364.52,4683.47,1315.02
14,1309,0.223317,-0.716125,1.567029,7866.51,238.46,1196.01
15,1419,0.230376,-0.670464,1.550104,8887.50,4381.45,950.00
16,1519,0.232147,-0.613067,1.525610,6868.51,-945.54,-2507.99
17,1619,0.226438,-0.549850,1.507043,5261.52,-1034.53,480.02
18,1719,0.232992,-0.492875,1.497102,4659.52,1611.47,4734.02
19,1829,0.283315,-0.430659,1.522490,3551.52,7134.47,4832.02
20,1929,0.339986,-0.345622,1.537698,3924.51,6442.46,-1280.99
21,2029,0.349741,-0.276306,1.547420,1615.50,9539.45,-7106.00
22,2139,0.255237,-0.313519,1.451093,-11184.50,9632.45,-7336.00
23,2239,0.238392,-0.399660,1.395693,-14842.49,4092.46,-1390.99
24,2339,0.199172,-0.473465,1.352284,-10711.47,4824.48,-2985.97
25,2439,0.150820,-0.557184,1.352446,-10736.49,2425.46,-3209.99
26,2539,0.101719,-0.639825,1.370163,-8820.47,3395.48,-2016.97
27,2649,0.076335,-0.727411,1.397142,-6798.47,-2493.52,-2959.97
28,2749,0.082571,-0.818375,1.424486,-4549.49,-6084.54,-1904.99
29,2849,0.105011,-0.916440,1.446100,-2750.49,-1877.54,-1512.99
30,2949,0.117145,-1.012539,1.464490,-593.48,-3948.53,-3556.98
31,3059,0.133777,-1.098508,1.470783,891.51,-659.54,-377.99
32,3159,0.219325,-1.271320,1.654065,1991.53,9769.48,3559.03
33,3259,0.203289,-1.282620,1.585413,1926.52,1826.47,1331.02
34,3359,0.212841,-1.320477,1.573769,4364.54,1283.49,1241.04
35,3469,0.210797,-1.344930,1.559202,7033.53,1852.48,-550.97
36,3569,0.210927,-1.344602,1.552589,8478.53,1915.48,-1288.97
37,3669,0.216568,-1.332385,1.552680,9576.53,2073.48,-2146.97
38,3769,0.223010,-1.303672,1.550505,11427.52,1522.47,-1876.98
39,3879,0.231104,-1.250994,1.559460,10621.53,391.48,181.03
40,3979,0.218099,-1.187523,1.559527,9563.51,1199.46,-771.99
41,4079,0.251668,-1.098014,1.539333,3562.53,264.48,1388.03
42,4189,0.260590,-1.059687,1.551722,1168.51,3614.46,335.01
43,4289,0.266160,-1.028794,1.559615,1888.53,2359.48,436.03
44,4389,0.274722,-1.000118,1.569547,2385.52,1981.47,523.02
45,4489,0.285331,-0.973198,1.575279,1889.51,2290.46,337.01
46,4589,0.291108,-0.952733,1.583905,2070.52,1977.47,255.02
47,4699,0.295835,-0.934240,1.590962,1988.51,2028.46,-26.99
48,4799,0.300623,-0.918611,1.591505,1823.53,2430.48,69.03
49,4899,0.302660,-0.907854,1.599748,2241.52,2065.47,-5.98
50,4999,0.309427,-0.898363,1.600456,1931.52,2431.47,316.02
1,0,0.056487,-0.121963,1.093764,2963.51,1847.46,826.01
2,99,0.098111,-0.233248,1.175222,2682.52,2808.47,2026.02
3,199,0.141603,-0.326687,1.250485,4820.53,1662.48,1735.03
4,299,0.180200,-0.402832,1.305706,6034.53,3190.48,2498.03
5,399,0.208394,-0.460104,1.358137,7494.52,82.47,1035.02
6,499,0.258469,-0.492873,1.386443,9532.50,1901.45,-488.00
7,599,0.276570,-0.511424,1.407428,10058.52,2576.47,-4386.98
8,699,0.294043,-0.509963,1.398403,10030.51,-705.54,-4626.99
9,799,0.279763,-0.487975,1.380954,4896.52,4327.47,-2658.98
10,899,0.285149,-0.461522,1.374912,5124.52,2586.47,4170.02
11,1009,0.299981,-0.418602,1.375233,3358.52,4298.47,3217.02
12,1109,0.324306,-0.362802,1.368400,1794.52,3170.47,-328.98
13,1209,0.335131,-0.324400,1.407399,431.50,10900.45,975.00
14,1309,0.355137,-0.270719,1.486617,4387.52,6041.47,-3731.98
15,1419,0.330668,-0.193925,1.449747,4697.52,15568.47,-12531.98
16,1519,0.233423,-0.234028,1.388708,-6606.48,4440.47,-4177.98
17,1619,0.208901,-0.322443,1.338730,-12795.47,-1567.52,3525.03
18,1719,0.196535,-0.372967,1.280775,-10612.46,450.49,263.04
19,1829,0.168904,-0.451490,1.274965,-15199.46,-3166.51,1085.04
20,1929,0.156275,-0.556541,1.325287,-11122.47,2171.48,2447.03
21,2029,0.141586,-0.658724,1.363594,-7698.47,-2260.52,75.03
22,2139,0.144719,-0.752026,1.400274,-3724.45,1607.50,-158.95
23,2239,0.145295,-0.840212,1.432057,-4040.47,-962.52,-1092.97
24,2339,0.161934,-0.934214,1.456527,-926.46,1015.49,-272.96
25,2439,0.177194,-1.018272,1.481135,1807.54,1325.49,-1156.96
26,2539,0.174894,-1.083532,1.482459,2161.53,2452.48,-839.97
27,2649,0.178231,-1.124703,1.480143,1206.53,480.48,139.03
28,2749,0.202051,-1.151953,1.447686,3241.53,2030.48,469.03
29,2849,0.209298,-1.184417,1.458148,4066.54,2155.49,-53.96
30,2949,0.210587,-1.209430,1.467846,5815.54,2149.49,-461.96
31,3059,0.212873,-1.215145,1.482113,6455.52,2191.47,-802.98
32,3159,0.217710,-1.213118,1.497830,5743.54,2183.49,-568.96
33,3259,0.221948,-1.208447,1.510713,6469.54,1795.49,-14.96
34,3359,0.226137,-1.193216,1.520857,7404.53,1746.48,-455.97
35,3469,0.233085,-1.164174,1.531787,8068.53,1432.48,66.03
36,3569,0.246517,-1.119878,1.545161,7488.53,1232.48,689.03
37,3669,0.252019,-1.071954,1.559752,2887.54,2068.49,1162.04
38,3769,0.241847,-1.055609,1.572300,5345.53,-992.52,2.03
39,3879,0.265555,-1.013041,1.578864,7383.54,-2265.51,631.04
40,3979,0.311488,-0.974477,1.584005,1540.55,2060.50,2492.05
41,4079,0.334107,-0.939501,1.580446,2504.54,374.49,-488.96
42,4189,0.352802,-0.915668,1.581486,2325.55,1493.50,105.05
43,4289,0.375687,-0.888561,1.579275,2239.54,1983.49,140.04
44,4389,0.385471,-0.866326,1.578531,1814.54,1948.49,-200.96
45,4489,0.396608,-0.850392,1.575738,1749.55,2148.50,-158.95
46,4589,0.408692,-0.836776,1.574829,2029.53,2219.48,308.03
47,4699,0.416547,-0.824909,1.574642,2051.54,2208.49,274.04
48,4799,0.424377,-0.815444,1.574630,1968.53,2250.48,378.03
49,4899,0.431288,-0.807802,1.575260,2053.53,2312.48,117.03
50,4999,0.436523,-0.800373,1.574459,2095.55,2336.50,135.05
1,0,0.041619,-0.131081,1.101199,2325.53,1774.48,486.03
2,99,0.077106,-0.238948,1.181688,2471.53,2809.48,-24.97
3,199,0.101117,-0.338251,1.255926,2569.54,2974.49,74.04
4,299,0.100030,-0.416892,1.318644,2677.53,9723.48,3522.03
5,399,0.111813,-0.484487,1.377301,3631.54,1286.49,492.04
6,499,0.138308,-0.533611,1.416448,6141.53,1749.48,-1317.97
7,609,0.132649,-0.568977,1.431650,7528.52,5078.47,-563.98
8,709,0.146223,-0.589681,1.425859,7250.54,-3718.51,-8066.96
9,809,0.143369,-0.596183,1.434028,6058.54,9588.49,1782.04
10,909,0.123401,-0.605701,1.458532,8291.53,462.48,741.03
11,1019,0.114284,-0.577464,1.469839,7639.53,-1182.52,2005.03
12,1119,0.118509,-0.531892,1.467383,7585.53,-5111.52,2477.03
13,1219,0.156653,-0.479002,1.463720,6609.54,-4364.51,1972.04
14,1319,0.209290,-0.413300,1.470678,3020.53,3421.48,2418.03
15,1429,0.246944,-0.352363,1.493035,2888.52,5079.47,-616.98
16,1529,0.307022,-0.276341,1.516232,1837.54,6681.50,-3072.96
17,1629,0.242767,-0.211576,1.488562,-3903.46,11336.49,-5403.96
18,1729,0.198899,-0.285341,1.407821,-12044.47,679.48,83.03
19,1839,0.205026,-0.392682,1.370503,-14247.46,11705.49,3447.04
20,1939,0.167790,-0.470152,1.366211,-10921.46,2574.49,-1781.96
21,2039,0.140351,-0.552518,1.393051,-7222.46,3802.49,-1326.96
22,2149,0.102269,-0.628883,1.411049,-7478.46,273.49,-333.96
23,2249,0.094399,-0.719006,1.433213,-7104.46,-2112.51,-720.96
24,2349,0.092910,-0.809418,1.458407,-5567.46,-1027.51,311.04
25,2449,0.102612,-0.901593,1.463049,-4464.45,-85.50,345.05
26,2549,0.111848,-0.996605,1.467160,-2547.47,-786.52,207.03
27,2659,0.117025,-1.082968,1.460052,-441.45,324.50,-187.95
28,2759,0.136001,-1.167015,1.453535,-80.45,3033.50,631.05
29,2859,0.142938,-1.241531,1.448800,-833.47,3180.48,1311.03
30,2959,0.206916,-1.275042,1.383198,2912.56,-2195.49,-1642.94
31,3069,0.197741,-1.324565,1.383503,4139.55,2029.50,-189.95
32,3169,0.193715,-1.337673,1.352945,6326.55,3606.50,-1224.95
33,3269,0.189890,-1.355096,1.358630,6643.55,1834.50,-170.95
34,3369,0.196233,-1.370437,1.375511,7242.55,1847.50,-387.95
35,3479,0.197450,-1.376482,1.405075,8306.55,938.50,-616.95
36,3579,0.209928,-1.367796,1.426177,10179.54,1466.49,-744.96
37,3679,0.218868,-1.341223,1.444882,11689.54,1307.49,-1101.96
38,3779,0.223080,-1.278884,1.470376,11135.55,1783.50,-1188.95
39,3889,0.222723,-1.194475,1.494958,5092.54,1090.49,368.04
40,3989,0.228609,-1.148087,1.512721,727.54,3142.49,630.04
41,4089,0.239087,-1.127316,1.526153,2074.55,2337.50,-0.95
42,4199,0.248195,-1.089904,1.537846,2715.55,1871.50,180.05
43,4299,0.253336,-1.064384,1.550439,1905.54,2339.49,207.04
44,4399,0.259811,-1.043113,1.560667,2089.53,2253.48,208.03
45,4499,0.263759,-1.022890,1.571082,2074.54,2203.49,200.04
46,4599,0.265888,-1.007496,1.579331,2052.53,2187.48,273.03
47,4709,0.270847,-0.993385,1.586709,2068.54,2225.49,294.04
48,4809,0.273085,-0.981336,1.593273,1873.54,2300.49,258.04
49,4909,0.277367,-0.973419,1.599053,2139.53,2302.48,181.03
50,5009,0.281227,-0.963889,1.603857,2008.54,2321.49,158.04
1,0,0.039312,-0.147579,1.094589,2063.54,2310.49,185.04
2,99,0.072911,-0.273954,1.173579,2064.54,2337.49,129.04
3,199,0.100225,-0.379268,1.241618,2081.54,2454.49,41.04
4,299,0.125199,-0.470689,1.298169,2055.53,2257.48,241.03
5,399,0.148954,-0.550740,1.345890,2335.53,2818.48,89.03
6,499,0.169237,-0.617539,1.388979,3153.53,3927.48,239.03
7,599,0.177708,-0.672230,1.422108,4166.55,5269.50,180.05
8,699,0.172164,-0.709343,1.450579,3015.54,2280.49,715.04
9,799,0.196620,-0.752480,1.479851,3639.54,3739.49,17.04
10,899,0.150042,-0.775742,1.481277,4569.53,-2633.52,-456.97
11,1009,0.226339,-0.770320,1.501824,8504.53,8223.48,-525.97
12,1109,0.188341,-0.776954,1.508542,7100.54,2704.49,-2118.96
13,1209,0.184681,-0.763843,1.520989,14146.53,2606.48,83.03
14,1309,0.171114,-0.706721,1.502456,7884.54,2544.49,357.04
15,1419,0.176300,-0.655164,1.505948,7936.55,2132.50,2672.05
16,1519,0.187044,-0.605060,1.503789,6643.54,3032.49,2686.04
17,1619,0.223275,-0.530556,1.518634,4176.54,692.49,993.04
18,1719,0.240888,-0.405119,1.574813,931.53,5421.48,-2157.97
19,1829,0.213873,-0.331895,1.532222,-14003.46,10312.49,-7239.96
20,1929,0.184777,-0.431887,1.516636,-6894.46,14771.49,3180.04
21,2029,0.184013,-0.489139,1.440932,-425.45,3611.50,-3959.95
22,2139,0.123635,-0.534270,1.386855,-5497.45,1192.50,-5833.95
23,2239,0.087456,-0.586345,1.378683,-11719.47,452.48,903.03
24,2339,0.075895,-0.670746,1.418227,-8556.44,-442.49,-2815.94
25,2439,0.046932,-0.753088,1.449935,-5415.45,77.50,-2413.95
26,2539,0.037219,-0.837984,1.471192,-6132.45,-464.50,71.05
27,2649,0.038594,-0.916957,1.485526,-3012.45,677.50,-358.95
28,2749,0.036633,-0.986739,1.488682,-1481.43,1052.52,459.07
29,2849,0.056608,-1.063705,1.501894,177.56,799.51,-366.94
30,2949,0.069431,-1.129420,1.512885,3042.56,1221.51,-1157.94
31,3059,0.071504,-1.179435,1.510711,3263.56,2115.51,1592.06
32,3159,0.069897,-1.203510,1.489326,4394.56,2957.51,-870.94
33,3259,0.071186,-1.225531,1.491271,3158.54,-848.51,112.04
34,3359,0.082224,-1.243076,1.496880,5342.54,-3126.51,-222.96
35,3469,0.143078,-1.233984,1.494799,6739.56,1760.51,-1790.94
36,3569,0.159336,-1.226916,1.508191,6630.55,2011.50,-958.95
37,3669,0.178777,-1.215432,1.518330,8171.54,1202.49,-148.96
38,3769,0.196803,-1.183168,1.528669,7909.57,1294.52,-196.93
39,3879,0.182481,-1.149187,1.549231,2517.56,4168.51,-868.94
40,3979,0.192719,-1.124699,1.561435,2363.56,2528.51,423.06
41,4079,0.206310,-1.106667,1.573182,2663.55,3093.50,375.05
42,4189,0.221616,-1.087147,1.587653,3815.55,4862.50,162.05
43,4289,0.212214,-1.059916,1.592592,3620.55,4705.50,93.05
44,4389,0.202282,-1.037447,1.600947,1990.56,1909.51,783.06
45,4489,0.200430,-1.027431,1.605906,2004.54,2142.49,509.04
46,4589,0.194041,-1.012564,1.611074,2280.55,2538.50,234.05
47,4699,0.197876,-1.004376,1.617004,1663.56,1784.51,175.06
48,4799,0.196192,-0.997855,1.620910,2654.56,3112.51,222.06
49,4899,0.189743,-0.987845,1.623699,2786.55,3377.50,55.05
50,4999,0.181093,-0.974539,1.624861,2015.56,2174.51,221.06
1,0,0.030414,-0.137452,1.100082,2322.56,2201.51,832.06
2,99,0.056303,-0.251174,1.182844,2937.56,1350.51,-717.94
3,199,0.078711,-0.346868,1.248432,3017.55,3419.50,57.05
4,299,0.093399,-0.427914,1.302734,3558.55,1747.50,-280.95
5,399,0.108704,-0.495394,1.347445,5370.54,2104.49,-834.96
6,499,0.102103,-0.550353,1.387866,7123.54,3971.49,-142.96
7,599,0.119289,-0.594468,1.427809,11796.55,-2745.50,130.05
8,699,0.162772,-0.598732,1.439219,11876.53,441.48,86.03
9,799,0.187776,-0.590674,1.436138,8597.55,4597.50,-2336.95
10,899,0.181893,-0.556689,1.427147,6503.54,-1530.51,310.04
11,1009,0.210786,-0.526355,1.432102,2837.54,235.49,809.04
12,1109,0.238091,-0.489658,1.452537,5651.55,-756.50,-1149.95
13,1209,0.269101,-0.409192,1.465091,4360.53,1931.48,1536.03
14,1309,0.294415,-0.331458,1.483269,5522.54,4375.50,-69.96
15,1419,0.291506,-0.219863,1.461275,872.53,7642.48,322.03
16,1519,0.287678,-0.269662,1.389846,-18465.48,11098.47,5023.02
17,1619,0.299330,-0.361996,1.354821,-15833.45,16354.50,5459.05
18,1719,0.296508,-0.455348,1.342079,-6955.45,7582.50,-2167.95
19,1829,0.260400,-0.532153,1.349357,-10977.44,5288.51,-4742.94
20,1929,0.206655,-0.624609,1.384859,-6071.44,1023.51,-5073.94
21,2029,0.163810,-0.726634,1.406521,-7235.45,-3808.50,-3631.95
22,2139,0.155205,-0.825991,1.420063,-6485.46,-1924.51,-189.96
23,2239,0.159024,-0.928809,1.444776,-3848.45,885.50,877.05
24,2339,0.172231,-1.021642,1.446867,-1587.45,-6356.50,-2986.95
25,2439,0.200577,-1.119008,1.453918,-822.45,1034.50,43.05
26,2539,0.198726,-1.199150,1.446270,391.57,4103.52,-749.93
27,2649,0.167636,-1.247788,1.404173,4745.55,9992.50,3555.05
28,2749,0.159116,-1.281148,1.393751,5495.55,3127.50,-547.95
29,2849,0.172419,-1.312927,1.395366,5125.55,2282.50,-569.95
30,2949,0.186290,-1.336571,1.403221,5751.55,2139.50,-483.95
31,3059,0.190684,-1.344143,1.412021,8350.56,1987.51,-773.94
32,3159,0.199618,-1.337726,1.430213,9727.55,1353.50,-599.95
33,3259,0.206168,-1.316048,1.449888,8907.55,1489.50,-455.95
34,3359,0.218035,-1.289272,1.470621,8516.57,1486.52,-790.93
35,3469,0.232663,-1.245675,1.491486,8101.55,1433.50,198.05
36,3569,0.217777,-1.206933,1.526524,4103.55,6258.50,60.05
37,3669,0.206882,-1.167118,1.542574,3867.56,4918.51,404.06
38,3769,0.200221,-1.130876,1.553762,2872.55,3403.50,461.05
39,3879,0.194999,-1.101334,1.567978,2846.55,3288.50,416.05
40,3979,0.184114,-1.073514,1.578670,2651.54,3059.49,408.04
41,4079,0.173928,-1.049280,1.589553,2175.55,2304.50,418.05
42,4189,0.166717,-1.027235,1.596898,1195.55,896.50,443.05
43,4289,0.169926,-1.014503,1.603051,845.55,439.50,369.05
44,4389,0.173936,-1.007196,1.606999,1426.54,1481.49,-72.96
45,4489,0.178241,-0.999886,1.611307,1603.55,1538.50,284.05
46,4589,0.184537,-0.994095,1.616177,1691.54,1671.49,371.04
47,4699,0.191610,-0.989940,1.619236,1776.57,1869.52,276.07
48,4799,0.195572,-0.987416,1.621617,1907.56,2010.51,291.06
49,4899,0.200843,-0.983861,1.623897,1896.56,2009.51,280.06
50,4999,0.207228,-0.982230,1.626000,1812.57,1845.52,369.07
1,0,0.029187,-0.141573,1.096383,1898.55,2025.50,290.05
2,99,0.051872,-0.259913,1.181275,2168.55,2422.50,237.05
3,199,0.069799,-0.363213,1.253543,1456.54,993.49,1551.04
4,299,0.090366,-0.456438,1.312536,2255.56,2310.51,902.06
5,399,0.105320,-0.546171,1.373189,2991.54,3122.49,1551.04
6,499,0.118526,-0.617188,1.430421,6780.56,2923.51,-680.94
7,599,0.132205,-0.659884,1.465958,10241.55,-3171.50,-2271.95
8,699,0.126546,-0.671108,1.466794,7144.54,12639.49,3203.04
9,799,0.132888,-0.683359,1.489826,7744.54,-5230.51,-308.96
10,899,0.163510,-0.678354,1.501346,9030.54,4639.49,1100.04
11,1009,0.160791,-0.658664,1.507018,11411.55,2504.50,-4935.95
12,1109,0.173879,-0.624991,1.489702,10679.55,3578.50,-4613.95
13,1209,0.115827,-0.572180,1.469069,9469.53,1430.48,-3990.97
14,1309,0.112076,-0.499972,1.435784,5457.56,4942.51,813.06
15,1419,0.104274,-0.439601,1.438729,2801.56,2548.51,3816.06
16,1519,0.122452,-0.351098,1.452055,5903.55,4824.50,1457.05
17,1619,0.110401,-0.195688,1.483815,6663.55,13571.50,111.05
18,1719,0.062128,-0.158090,1.396243,-2540.44,4796.51,-5679.94
19,1829,0.069398,-0.267343,1.308202,-17761.45,-595.49,617.06
20,1929,0.072282,-0.333988,1.252245,-14645.46,5466.49,-981.96
21,2029,0.046589,-0.409697,1.270234,-12509.45,1235.50,-1333.95
22,2139,0.017720,-0.484322,1.312514,-10806.44,-2191.49,-3242.94
23,2239,0.020556,-0.566393,1.366890,-8164.43,-3363.48,-2182.93
24,2339,0.033678,-0.656423,1.413495,-8148.44,1086.51,1948.06
25,2439,0.039081,-0.739706,1.443441,-3985.46,617.49,-1265.96
26,2539,0.030125,-0.831223,1.457396,-3517.43,502.52,-1118.93
27,2649,0.031887,-0.914982,1.465102,-3265.44,-1581.49,818.06
28,2749,0.041716,-1.002876,1.477895,-2578.43,570.52,-10.93
29,2849,0.068565,-1.084581,1.489740,1208.57,659.52,2742.07
30,2949,0.093620,-1.124367,1.465696,4786.57,970.52,-1595.93
31,3059,0.114716,-1.166059,1.453773,5375.57,-648.48,912.07
32,3159,0.136236,-1.186464,1.441056,6319.57,1732.52,130.07
33,3259,0.161083,-1.203295,1.454362,7026.56,1388.51,-202.94
34,3359,0.178522,-1.203686,1.473216,7367.56,1516.51,-475.94
35,3469,0.201787,-1.186733,1.492886,7262.56,1392.51,-79.94
36,3569,0.220243,-1.163882,1.505796,6912.54,1281.49,784.04
37,3669,0.263672,-1.144807,1.536985,4641.56,5556.51,691.06
38,3769,0.254754,-1.117405,1.550422,4114.55,5100.50,521.05
39,3879,0.247962,-1.089847,1.561202,3248.56,3781.51,470.06
40,3979,0.235396,-1.067265,1.568736,1444.57,1336.52,314.07
41,4079,0.242586,-1.054790,1.576934,1167.56,853.51,363.06
42,4189,0.240751,-1.045651,1.584617,1819.57,1988.52,104.07
43,4289,0.242816,-1.038414,1.590927,1926.56,2046.51,249.06
44,4389,0.243253,-1.031915,1.596199,2133.56,2383.51,194.06
45,4489,0.244668,-1.026647,1.601852,2288.55,2458.50,430.05
46,4589,0.241275,-1.017958,1.604424,2336.55,2540.50,457.05
47,4699,0.241119,-1.012238,1.608184,2092.56,2251.51,324.06
48,4799,0.236702,-1.007010,1.614511,1813.56,2005.51,80.06
49,4899,0.239319,-1.006009,1.617692,1795.56,1931.51,192.06
50,4999,0.244968,-1.004535,1.620342,2083.56,2295.51,207.06
1,0,0.018586,-0.125917,1.094644,2085.56,2088.51,546.06
2,99,0.033998,-0.232507,1.175127,1844.54,2403.49,189.04
3,199,0.045872,-0.324848,1.244545,2094.55,2114.50,294.05
4,299,0.060872,-0.400573,1.303313,2376.54,2003.49,630.04
5,399,0.071077,-0.463878,1.352002,2432.55,1854.50,677.05
6,499,0.083579,-0.522044,1.396408,2572.55,2073.50,124.05
7,599,0.085727,-0.572932,1.438329,3266.56,1728.51,-319.94
8,699,0.104124,-0.627466,1.491192,6125.55,1428.50,668.05
9,799,0.084788,-0.651060,1.496263,9147.55,-2083.50,-462.95
10,899,0.101935,-0.636801,1.508410,8331.54,-7124.50,878.04
11,1009,0.160820,-0.622777,1.494712,9885.54,3909.49,2923.04
12,1109,0.166745,-0.555338,1.479700,10586.55,5582.50,146.05
13,1209,0.161105,-0.496368,1.468752,8131.54,2736.49,-402.96
14,1309,0.175611,-0.426413,1.464353,6211.54,1046.49,3416.04
15,1419,0.216213,-0.278932,1.486158,7363.54,3682.49,176.04
16,1519,0.265116,-0.171188,1.454557,254.54,11233.49,-5435.96
17,1619,0.233606,-0.246964,1.370605,-16881.47,11779.48,-6091.97
18,1719,0.177545,-0.357150,1.346156,-15576.45,8378.50,-2168.95
19,1829,0.154501,-0.428085,1.312503,-4779.46,1471.49,-4824.96
20,1929,0.104831,-0.503504,1.324236,-8531.45,1796.50,-2601.95
21,2029,0.054206,-0.578157,1.359697,-7644.45,-1828.50,-1769.95
22,2139,0.025971,-0.659135,1.394985,-6043.45,-1526.50,-717.95
23,2239,0.014440,-0.731903,1.431370,-4960.44,-14.49,-120.94
24,2339,0.003833,-0.798883,1.439079,-4105.43,-801.48,-818.93
25,2439,0.019939,-0.872222,1.451876,-4483.44,-1756.49,-841.94
26,2539,0.039508,-0.967373,1.473941,-2391.44,-171.49,-1016.94
27,2649,0.053906,-1.062094,1.502254,1870.56,1606.51,-694.94
28,2749,0.078029,-1.100712,1.474190,5447.56,3824.51,8.06
29,2849,0.079527,-1.150511,1.478846,6166.56,1597.51,-369.94
30,2949,0.076314,-1.173816,1.486245,7050.58,-947.47,313.08
31,3059,0.227136,-1.236893,1.632116,7844.56,119.51,110.06
32,3159,0.205151,-1.220488,1.629379,7406.57,6296.52,-1385.93
33,3259,0.190821,-1.195852,1.628023,7775.56,5268.51,844.06
34,3359,0.164213,-1.159163,1.628115,8740.57,5498.52,1631.07
35,3469,0.139325,-1.112158,1.628249,7441.56,4829.51,1441.06
36,3569,0.109418,-1.059550,1.626751,5487.56,4108.51,1053.06
37,3669,0.086194,-1.007235,1.624617,1801.57,1803.52,2786.07
38,3769,0.078264,-0.978332,1.630952,1031.55,1874.50,563.05
39,3879,0.065865,-0.951511,1.624471,517.56,1618.51,261.06
40,3979,0.057048,-0.938528,1.624583,801.56,1559.51,540.06
41,4079,0.055870,-0.927090,1.624972,1638.56,2076.51,72.06
42,4189,0.049504,-0.913614,1.626090,1375.56,2018.51,42.06
43,4289,0.044954,-0.904009,1.628047,573.56,1495.51,111.06
44,4389,0.047696,-0.902472,1.627604,447.56,1335.51,-76.94
45,4489,0.050539,-0.905323,1.626862,216.55,1313.50,-100.95
46,4589,0.054329,-0.914009,1.627623,440.55,1508.50,-78.95
47,4699,0.060169,-0.921190,1.629606,999.56,1615.51,322.06
48,4799,0.068429,-0.930242,1.629351,1542.55,1942.50,464.05
49,4899,0.073252,-0.941012,1.630508,1664.55,2067.50,239.05
50,4999,0.074918,-0.949050,1.633029,2349.57,2339.52,139.07
1,0,0.027759,-0.132051,1.094131,1694.55,1736.50,41.05
2,99,0.059319,-0.247499,1.177182,1992.55,3134.50,466.05
3,199,0.082813,-0.344055,1.252078,2625.56,3531.51,-244.94
4,299,0.099816,-0.426255,1.316491,3259.57,639.52,-756.93
5,399,0.122765,-0.499238,1.370051,5485.55,2856.50,-397.95
6,499,0.130809,-0.555030,1.416145,9626.55,-2861.50,-1431.95
7,599,0.179541,-0.576581,1.421597,9917.57,6430.52,455.07
8,699,0.126389,-0.581385,1.426487,11209.55,14382.50,-2421.95
9,799,0.092874,-0.551778,1.422093,9915.56,-4937.49,2894.06
10,899,0.198420,-0.526062,1.539391,14210.57,2385.52,4254.07
11,1009,0.185393,-0.413805,1.506416,4101.54,-4468.51,2008.04
12,1109,0.249686,-0.317599,1.558825,2415.55,3719.50,-1066.95
13,1209,0.258358,-0.178932,1.532603,5829.57,7735.52,-5200.93
14,1309,0.214916,-0.243220,1.442766,-15078.46,8560.49,-4389.96
15,1419,0.194874,-0.361804,1.370323,-19053.44,10844.51,-511.94
16,1519,0.158300,-0.456815,1.340479,-6974.44,6646.51,-1652.94
17,1619,0.098099,-0.524921,1.325586,-8398.44,-433.49,-2486.94
18,1719,0.085857,-0.606304,1.351250,-11342.44,-8970.49,-3764.94
19,1829,0.090923,-0.710233,1.393939,-7048.43,-658.48,-2283.93
20,1929,0.108450,-0.805310,1.430737,-5845.43,3653.52,-2079.93
21,2029,0.100514,-0.918847,1.444291,-4635.44,236.51,658.06
22,2139,0.108601,-1.030112,1.470588,-2133.42,-1114.47,-423.92
23,2239,0.110310,-1.116722,1.460458,1012.56,545.51,126.06
24,2339,0.121304,-1.172963,1.447727,-445.43,1125.52,434.07
25,2439,0.084267,-1.254900,1.508812,-520.42,752.53,356.08
26,2539,0.109915,-1.305960,1.484013,4080.56,4201.51,-141.94
27,2649,0.118642,-1.336453,1.470825,5598.56,1341.51,-1235.94
28,2749,0.125455,-1.355524,1.463479,6164.56,-2863.49,-1163.94
29,2849,0.229464,-1.372613,1.458187,8369.56,6471.51,-1578.94
30,2949,0.236756,-1.372197,1.469601,10263.56,8092.51,-371.94
31,3059,0.230888,-1.361315,1.486334,12195.57,8220.52,31.07
32,3159,0.206198,-1.294882,1.500758,12311.56,7753.51,3286.06
33,3259,0.165693,-1.217539,1.521552,5823.57,4275.52,3011.07
34,3359,0.146900,-1.163260,1.541002,2270.57,2238.52,1419.07
35,3469,0.135376,-1.129007,1.556144,911.58,1800.53,358.08
36,3569,0.128071,-1.100623,1.568758,1433.58,1809.53,400.08
37,3669,0.119499,-1.078878,1.578784,1780.57,2302.52,259.07
38,3769,0.108807,-1.058326,1.587709,2692.56,2616.51,502.06
39,3879,0.102356,-1.035034,1.596851,2449.57,2178.52,937.07
40,3979,0.093705,-1.015546,1.603286,1602.57,1983.52,327.07
41,4079,0.088970,-1.001674,1.608407,1146.56,1780.51,82.06
42,4189,0.088992,-0.994295,1.611698,1605.57,1934.52,268.07
43,4289,0.086190,-0.984947,1.615961,1381.57,1768.52,301.07
44,4389,0.085549,-0.979217,1.617954,1177.58,1669.53,507.08
45,4489,0.085846,-0.978942,1.621992,1316.56,1645.51,712.06
46,4589,0.091225,-0.981327,1.621891,1652.57,1684.52,247.07
47,4699,0.094588,-0.982695,1.624130,2164.56,2056.51,252.06
48,4799,0.096422,-0.982521,1.625191,1932.57,2173.52,360.07
49,4899,0.097469,-0.982684,1.626349,2052.56,2030.51,357.06
50,4999,0.100079,-0.982366,1.628230,1999.56,1941.51,137.06
1,0,0.013313,-0.145490,1.094479,1808.58,2190.53,375.08
2,99,0.025690,-0.270989,1.175867,2216.57,2379.52,209.07
3,199,0.032970,-0.375904,1.245467,2088.56,2270.51,334.06
4,299,0.039029,-0.468251,1.301350,2400.56,1941.51,208.06
5,399,0.040024,-0.547660,1.354563,4220.57,85.52,24.07
6,499,0.061688,-0.604264,1.393441,5641.57,-1223.48,-237.93
7,599,0.097058,-0.634286,1.411655,4100.55,865.50,105.05
8,699,0.064006,-0.663174,1.458356,3644.56,934.51,817.06
9,799,0.082017,-0.686447,1.485510,3960.56,816.51,-463.94
10,899,0.117725,-0.718809,1.509341,5785.55,-97.50,196.05
11,999,0.140698,-0.742764,1.518850,10621.56,-1385.49,-2372.94
12,1109,0.167164,-0.725753,1.559781,13335.57,4669.52,-4082.93
13,1209,0.155182,-0.680259,1.547734,13017.55,770.50,-545.95
14,1309,0.165779,-0.589824,1.526801,9487.56,1602.51,2477.06
15,1419,0.188337,-0.484372,1.521770,7178.56,2677.51,1911.06
16,1519,0.204636,-0.317321,1.556349,6891.55,7157.50,-142.95
17,1619,0.204354,-0.218064,1.474266,-3164.45,12799.50,-7882.95
18,1719,0.192341,-0.332823,1.375034,-19119.45,5162.50,-2879.95
19,1829,0.151534,-0.406729,1.326192,-12145.44,7563.51,-1602.94
20,1929,0.103884,-0.478429,1.306886,-9262.43,-695.48,-4792.93
21,2029,0.065798,-0.562867,1.329972,-11442.43,-635.48,-2952.93
22,2139,0.062631,-0.658883,1.403007,-6072.43,2675.52,193.07
23,2239,0.047798,-0.743041,1.426159,-4883.43,-756.48,-2998.93
24,2339,0.047349,-0.836750,1.453583,-6783.43,-1043.48,669.07
25,2439,0.056946,-0.935152,1.483101,-2392.44,-1228.49,706.06
26,2539,0.072685,-1.020478,1.495062,-99.42,1087.53,-129.92
27,2649,0.087198,-1.090186,1.490324,-635.44,-669.49,-1302.94
28,2749,0.103983,-1.147937,1.480695,-1355.43,1688.52,1437.07
29,2849,0.111585,-1.229690,1.486022,4415.55,498.50,-1169.95
30,2949,0.107519,-1.274718,1.500512,5578.57,-269.48,-1516.93
31,3059,0.123692,-1.297098,1.499205,4960.57,-1582.48,-368.93
32,3159,0.174535,-1.303358,1.507743,5482.57,3696.52,-393.93
33,3259,0.191221,-1.307581,1.512529,5142.58,4437.53,-167.92
34,3359,0.203645,-1.306190,1.517458,6399.56,4997.51,23.06
35,3469,0.210489,-1.291348,1.526280,7650.57,5393.52,766.07
36,3569,0.210392,-1.268515,1.538356,9790.57,6068.52,1460.07
37,3669,0.193043,-1.221220,1.545893,9133.57,6770.52,1173.07
38,3769,0.152313,-1.137623,1.531224,2960.56,1539.51,1132.06
39,3879,0.161474,-1.095606,1.546495,2054.59,1945.54,1215.09
40,3979,0.150218,-1.076957,1.559129,2088.58,2263.53,-183.92
41,4079,0.137043,-1.056125,1.570141,2087.57,2199.52,294.07
42,4189,0.129945,-1.040817,1.578714,2036.56,2333.51,-79.94
43,4289,0.122941,-1.026779,1.586734,1982.57,2296.52,373.07
44,4389,0.115048,-1.013236,1.594155,2010.57,2216.52,315.07
45,4489,0.113318,-1.001321,1.599310,2067.57,2150.52,144.07
46,4589,0.112215,-0.991615,1.605064,2089.57,2153.52,381.07
47,4699,0.105875,-0.982394,1.610450,2041.56,2267.51,30.06
48,4799,0.101603,-0.977376,1.614020,2052.57,2189.52,-205.93
49,4899,0.097350,-0.972855,1.616909,2120.57,2296.52,184.07
50,4999,0.093203,-0.967913,1.619584,2095.56,2148.51,223.06
1,0,0.044294,-0.142927,1.095212,1956.57,2164.52,261.07
2,99,0.093296,-0.266320,1.177313,2032.56,2091.51,623.06
3,199,0.127587,-0.369354,1.243639,2082.56,2371.51,267.06
4,299,0.153694,-0.459314,1.299484,2244.56,2160.51,638.06
5,399,0.177662,-0.543543,1.352630,2517.57,2116.52,179.07
6,499,0.198858,-0.610377,1.396906,2637.56,1609.51,-1111.94
7,599,0.232348,-0.662297,1.431318,3877.56,1853.51,-1120.94
8,699,0.279344,-0.712747,1.446835,5244.56,17682.51,490.06
9,799,0.231309,-0.734791,1.459805,10231.56,11542.51,1155.06
10,899,0.194306,-0.730714,1.468431,10009.57,-2235.48,38.07
11,1009,0.179607,-0.705275,1.482721,9787.56,-2301.49,1293.06
12,1109,0.174621,-0.661680,1.504773,12490.56,715.51,2412.06
13,1209,0.177322,-0.602377,1.489131,12007.56,1098.51,1412.06
14,1309,0.175004,-0.512913,1.456956,10478.55,3165.50,506.05
15,1419,0.177372,-0.431431,1.443963,7680.55,2070.50,1503.05
16,1519,0.200974,-0.304895,1.440482,7298.55,4439.50,-1137.95
17,1619,0.205014,-0.135102,1.394548,1518.56,4947.51,-9926.94
18,1719,0.134400,-0.183186,1.288890,-21200.46,3627.49,-4079.96
19,1829,0.135902,-0.297225,1.252895,-14679.43,19568.52,1509.07
20,1929,0.102809,-0.387311,1.225028,-7325.43,2697.52,-7805.93
21,2029,0.009092,-0.459013,1.230181,-9147.44,242.51,-4962.94
22,2139,-0.022191,-0.544422,1.297200,-7134.44,-945.49,-792.94
23,2239,-0.053597,-0.631193,1.341112,-3927.44,-2172.49,-2933.94
24,2339,-0.071210,-0.702036,1.373987,-4539.43,-1112.48,-477.93
25,2439,-0.073052,-0.776133,1.392117,-4570.43,-2406.48,-666.93
26,2539,-0.053433,-0.861600,1.415913,-3993.43,-3403.48,-361.93
27,2649,-0.023262,-0.943897,1.445277,-1278.44,-453.49,-1753.94
28,2749,0.003702,-1.028425,1.465310,-633.44,-200.49,433.06
29,2849,0.029588,-1.094011,1.473898,1683.58,838.53,419.08
30,2949,0.111063,-1.127494,1.459353,6816.56,-2801.49,-919.94
31,3059,0.125148,-1.166500,1.466948,6240.59,909.54,-934.91
32,3159,0.129173,-1.189036,1.482248,6552.56,-1632.49,136.06
33,3259,0.144294,-1.199311,1.494667,6204.56,-4347.49,1182.06
34,3359,0.163776,-1.204108,1.506761,9360.57,1854.52,-1568.93
35,3469,0.186269,-1.173853,1.505139,9181.58,1313.53,-261.92
36,3569,0.212071,-1.134715,1.524158,6788.57,1454.52,301.07
37,3669,0.247479,-1.095148,1.535345,1666.57,3473.52,826.07
38,3769,0.265784,-1.068036,1.537016,2248.57,2677.52,827.07
39,3879,0.281123,-1.052295,1.546750,1739.58,3188.53,500.08
40,3979,0.290682,-1.041901,1.561743,2012.56,2661.51,297.06
41,4079,0.297068,-1.031473,1.571210,2023.56,2543.51,224.06
42,4189,0.299750,-1.024257,1.578488,2009.59,2586.54,428.09
43,4289,0.298660,-1.017885,1.583996,1978.56,2582.51,172.06
44,4389,0.298869,-1.012286,1.588331,1962.56,2720.51,328.06
45,4489,0.303496,-1.006557,1.594249,2017.57,2399.52,337.07
46,4589,0.305232,-1.003316,1.600177,1991.57,2588.52,411.07
47,4699,0.306579,-0.998419,1.605105,2012.57,2798.52,122.07
48,4799,0.305709,-0.995777,1.607628,2045.56,3014.51,327.06
49,4899,0.310024,-0.994739,1.610688,1913.56,3213.51,466.06
50,4999,0.307430,-0.996201,1.617611,1870.56,2672.51,365.06
1,0,0.015766,-0.146498,1.097189,1912.57,2389.52,472.07
2,99,0.026457,-0.274060,1.178847,1849.56,2048.51,606.06
3,199,0.035782,-0.381683,1.248532,2470.56,2191.51,168.06
4,299,0.047151,-0.471881,1.309283,2783.56,1315.51,458.06
5,399,0.060788,-0.554298,1.368484,4967.57,418.52,329.07
6,499,0.074723,-0.612378,1.408990,7290.56,-66.49,-1251.94
7,599,0.096071,-0.657681,1.452466,9094.57,2087.52,63.07
8,699,0.103341,-0.687985,1.488451,12335.58,1555.53,-1395.92
9,799,0.122594,-0.680290,1.498273,11838.56,3775.51,26.06
10,899,0.125812,-0.654285,1.493804,11613.57,1688.52,-3042.93
11,1009,0.144441,-0.593180,1.455161,9569.57,2171.52,-2720.93
12,1109,0.119919,-0.520824,1.421161,1673.56,9070.51,-1557.94
13,1209,0.073660,-0.468275,1.470813,3284.58,2716.53,1836.08
14,1309,0.090333,-0.380213,1.516716,13799.55,-4637.50,3011.05
15,1419,0.111372,-0.197877,1.481520,12204.55,5434.50,-4782.95
16,1519,0.105579,-0.250680,1.357964,-10505.44,-5546.49,921.06
17,1619,0.116934,-0.329620,1.285809,-14190.44,11108.51,2579.06
18,1719,0.122485,-0.398751,1.261209,-12181.42,7549.53,-103.92
19,1829,0.088237,-0.471575,1.297848,-10374.43,2965.52,-1239.93
20,1929,0.064510,-0.526847,1.357336,-7518.43,1183.52,251.07
21,2029,0.066681,-0.587964,1.405649,-4892.43,812.52,691.07
22,2139,0.061349,-0.644582,1.437193,-5446.42,3013.53,521.08
23,2239,0.057860,-0.701516,1.466514,-4566.44,830.51,-393.94
24,2339,0.048083,-0.769776,1.488288,-3649.43,-946.48,-266.93
25,2439,0.052828,-0.832155,1.513882,-3389.44,811.51,-829.94
26,2539,0.063087,-0.920809,1.526811,-2625.43,-1796.48,-1026.93
27,2649,0.093157,-0.998802,1.537160,-590.42,49.53,535.08
28,2749,0.110038,-1.057314,1.529184,-275.42,1272.53,-1545.92
29,2849,0.120028,-1.115985,1.527238,-780.42,39.53,366.08
30,2949,0.179790,-1.135423,1.472392,5991.58,6898.53,2837.08
31,3059,0.188821,-1.158665,1.456938,3975.58,3808.53,90.08
32,3159,0.197266,-1.194992,1.464804,4113.57,3149.52,-552.93
33,3259,0.198677,-1.222153,1.475006,6103.58,4097.53,-898.92
34,3359,0.200186,-1.226912,1.488877,7099.56,4715.51,-615.94
35,3469,0.202496,-1.225023,1.503579,8354.58,4435.53,486.08
36,3569,0.189334,-1.201519,1.509356,9093.57,5235.52,1629.07
37,3669,0.179886,-1.168100,1.524868,8024.57,3719.52,2115.07
38,3769,0.167479,-1.122500,1.546678,2517.57,682.52,3969.07
39,3879,0.168487,-1.091028,1.556518,3438.57,544.52,1002.07
40,3979,0.164967,-1.065705,1.569882,2500.57,1713.52,88.07
41,4079,0.166462,-1.044181,1.580270,2485.56,1663.51,474.06
42,4189,0.174287,-1.024640,1.586573,2445.57,1748.52,519.07
43,4289,0.177039,-1.005430,1.593524,1461.56,2972.51,307.06
44,4389,0.172621,-0.994558,1.599853,823.57,3717.52,275.07
45,4489,0.161138,-0.991781,1.607961,1503.56,2848.51,472.06
46,4589,0.155041,-0.988120,1.613608,2045.56,2264.51,291.06
47,4699,0.151798,-0.983470,1.617639,2420.57,1841.52,67.07
48,4799,0.153492,-0.976277,1.620919,2410.57,1797.52,165.07
49,4899,0.154401,-0.970108,1.623651,2178.56,2066.51,296.06
50,4999,0.155686,-0.964241,1.625919,2192.58,2063.53,548.08
1,0,0.036658,-0.129231,1.095395,1820.57,2510.52,208.07
2,99,0.063954,-0.242428,1.177414,1808.56,2514.51,191.06
3,199,0.088840,-0.340019,1.246599,2355.57,1849.52,345.07
4,299,0.108456,-0.420957,1.306048,2807.57,1320.52,285.07
5,399,0.125220,-0.484664,1.353576,3424.57,750.52,298.07
6,499,0.133208,-0.542074,1.404906,4400.57,-323.48,805.07
7,599,0.173084,-0.582688,1.439967,4948.57,-1246.48,757.07
8,699,0.206064,-0.608329,1.464130,3180.56,1435.51,922.06
9,799,0.237612,-0.653599,1.516382,6919.56,4859.51,681.06
10,899,0.255253,-0.669611,1.526811,9716.55,2338.50,-3362.95
11,1009,0.254246,-0.659326,1.525789,9042.56,7097.51,-3422.94
12,1109,0.243703,-0.641501,1.513202,10131.56,4289.51,-3943.94
13,1209,0.209822,-0.604048,1.505578,9605.56,40.51,-36.94
14,1309,0.210099,-0.544143,1.479836,8170.57,1911.52,3030.07
15,1419,0.203066,-0.494651,1.453524,7825.57,1205.52,-59.93
16,1519,0.189745,-0.425155,1.419860,6802.56,2646.51,-26.94
17,1619,0.191936,-0.344220,1.405877,5744.57,1978.52,3300.07
18,1719,0.224907,-0.263047,1.394046,7448.56,4178.51,126.06
19,1829,0.236930,-0.142396,1.388237,8663.56,3626.51,-7755.94
20,1929,0.169237,-0.016589,1.317675,-1927.44,5051.51,-10805.94
21,2029,0.135246,-0.121322,1.204707,-20795.45,-2583.49,140.06
22,2139,0.173187,-0.243451,1.172020,-16348.43,6732.52,2572.07
23,2239,0.145616,-0.328327,1.167362,-11196.43,7447.52,-3847.93
24,2339,0.089717,-0.405398,1.208923,-10641.44,403.51,-3253.94
25,2439,0.052768,-0.486966,1.262469,-9839.42,-1216.47,281.08
26,2539,0.033903,-0.591382,1.336913,-5653.44,-2457.49,1792.06
27,2649,0.043632,-0.680868,1.389205,-5935.43,-2868.48,-333.93
28,2749,0.059042,-0.764786,1.426750,-4113.43,-196.48,163.07
29,2849,0.072727,-0.852230,1.453298,-3705.41,1726.54,597.09
30,2949,0.086776,-0.937324,1.473209,-2664.43,3030.52,1767.07
31,3059,0.083831,-1.022489,1.473709,-2376.43,4048.52,1034.07
32,3159,0.092699,-1.101508,1.472394,-2059.42,-1679.47,-1507.92
33,3259,0.099979,-1.172502,1.445678,-1783.44,62.51,-553.94
34,3359,0.140098,-1.240665,1.453970,2708.57,1163.52,-277.93
35,3469,0.171141,-1.277546,1.449409,2904.57,3519.52,-1078.93
36,3569,0.184783,-1.320779,1.448022,5022.56,4269.51,-1916.94
37,3669,0.207823,-1.344398,1.456346,6961.57,4114.52,-1064.93
38,3769,0.219058,-1.348470,1.462470,7132.57,4417.52,-541.93
39,3879,0.220147,-1.342264,1.473735,7762.56,4497.51,533.06
40,3979,0.213181,-1.322835,1.488805,8910.57,4615.52,945.07
41,4079,0.212754,-1.283249,1.491909,9600.56,5437.51,1565.06
42,4189,0.224420,-1.222355,1.494053,8577.56,7079.51,3940.06
43,4289,0.198650,-1.185298,1.522133,2398.57,1348.52,1252.07
44,4389,0.184032,-1.161508,1.534337,2117.57,2047.52,402.07
45,4489,0.168513,-1.136508,1.549379,1989.57,2273.52,422.07
46,4589,0.160760,-1.114159,1.561561,2088.57,2213.52,231.07
47,4699,0.158930,-1.101480,1.582957,1985.57,2433.52,-11.93
48,4799,0.152560,-1.086399,1.589206,2080.59,2225.54,210.09
49,4899,0.143465,-1.075119,1.596824,2245.58,2027.53,108.08
50,4999,0.140714,-1.063571,1.602878,2681.58,1499.53,193.08
1,0,0.030323,-0.139595,1.095047,2012.57,2282.52,261.07
2,99,0.053131,-0.252262,1.178107,2245.58,1982.53,310.08
3,199,0.069790,-0.349898,1.250649,2105.57,2082.52,1354.07
4,299,0.070949,-0.443874,1.317052,4053.57,114.52,1531.07
5,399,0.104234,-0.521173,1.371554,6540.57,-2450.48,2876.07
6,499,0.138203,-0.571458,1.413376,7246.57,2457.52,77.07
7,609,0.173925,-0.599828,1.431146,8537.57,1009.52,-155.93
8,709,0.198740,-0.608066,1.432992,8585.57,6737.52,-526.93
9,809,0.223074,-0.619793,1.457121,7715.57,-1417.48,-2354.93
10,909,0.233449,-0.593598,1.467267,7043.57,4773.52,1254.07
11,1019,0.241133,-0.562891,1.475121,6465.58,-790.47,52.08
12,1119,0.253230,-0.515897,1.469969,6847.57,1982.52,963.07
13,1219,0.250768,-0.466065,1.491023,7400.56,4205.51,3045.06
14,1319,0.278412,-0.347518,1.549275,11274.57,1349.52,49.07
15,1429,0.303063,-0.236663,1.527965,9499.56,6066.51,-3557.94
16,1529,0.285912,-0.266088,1.399383,-6155.43,6570.52,671.07
17,1629,0.268862,-0.342149,1.307648,-15790.43,7284.52,-654.93
18,1729,0.240472,-0.416560,1.294182,-13865.43,5486.52,-1289.93
19,1839,0.224324,-0.465875,1.294436,-7968.42,3956.53,-915.92
20,1939,0.179305,-0.521856,1.358171,-10093.43,-4259.48,-1901.93
21,2039,0.192345,-0.579345,1.404381,-7434.43,-727.48,432.07
22,2149,0.189056,-0.657746,1.455891,-6355.44,3721.51,2366.06
23,2249,0.200047,-0.733213,1.485374,-5064.44,2015.51,-967.94
24,2349,0.199319,-0.821914,1.519644,-3388.43,6428.52,-1248.93
25,2449,0.187952,-0.891633,1.517884,-1480.43,4541.52,622.07
26,2549,0.189807,-0.963676,1.524940,-3310.43,-4904.48,-1509.93
27,2659,0.201015,-1.044065,1.515354,-1327.44,1864.51,-432.94
28,2759,0.202047,-1.117797,1.507445,-783.43,2056.52,-415.93
29,2859,0.025475,-1.384540,1.685228,-320.44,-4747.49,-1336.94
30,2959,0.068548,-1.388744,1.629718,3829.59,2136.54,261.09
31,3069,0.100912,-1.400630,1.607236,3660.58,3518.53,-616.92
32,3169,0.131626,-1.406521,1.593033,5693.57,4140.52,-795.93
33,3269,0.153282,-1.401312,1.579954,7677.56,4463.51,58.06
34,3369,0.168303,-1.384232,1.577112,8996.57,4508.52,1442.07
35,3479,0.170872,-1.353087,1.578543,8882.58,4869.53,715.08
36,3579,0.159085,-1.312845,1.584226,9537.58,5244.53,-330.92
37,3679,0.144268,-1.252711,1.573402,2860.57,802.52,-424.93
38,3779,0.162583,-1.203099,1.580424,4279.58,-975.47,2966.08
39,3889,0.164582,-1.166440,1.589176,3116.58,1114.53,-505.92
40,3989,0.167910,-1.131893,1.596231,3789.57,284.52,140.07
41,4089,0.182587,-1.092933,1.597980,3561.59,473.54,470.09
42,4199,0.194732,-1.058627,1.601242,2324.56,1942.51,20.06
43,4299,0.205824,-1.031334,1.604052,991.56,3426.51,72.06
44,4399,0.206061,-1.015405,1.609168,664.58,3748.53,434.08
45,4499,0.201098,-1.006791,1.615037,1169.56,3211.51,383.06
46,4599,0.196917,-0.999340,1.619055,1920.59,2355.54,338.09
47,4709,0.193326,-0.990077,1.621408,2568.57,1641.52,302.07
48,4809,0.195145,-0.979109,1.622292,2087.58,2189.53,265.08
49,4909,0.192845,-0.972240,1.624965,1669.58,2667.53,281.08
50,5009,0.189426,-0.967995,1.628519,2303.58,1982.53,121.08
1,0,0.030836,-0.136445,1.096182,2326.57,1926.52,292.07
2,99,0.054648,-0.249768,1.176710,2251.59,1988.54,430.09
3,199,0.081827,-0.348730,1.246477,1803.58,2510.53,273.08
4,299,0.100975,-0.433836,1.306951,2304.56,1910.51,413.06
5,399,0.115986,-0.511926,1.358408,3227.56,1024.51,499.06
6,499,0.127117,-0.570136,1.402349,4330.57,-277.48,310.07
7,599,0.156884,-0.610660,1.433766,4322.57,599.52,1782.07
8,699,0.181235,-0.650343,1.463381,4319.58,517.53,1241.08
9,799,0.212827,-0.684329,1.498296,7493.57,-3686.48,-2512.93
10,899,0.250703,-0.706553,1.532624,13149.56,898.51,338.06
11,1009,0.270850,-0.692484,1.529833,15040.56,4732.51,-1589.94
12,1109,0.277153,-0.649562,1.489100,15026.59,3437.54,-1757.91
13,1209,0.263303,-0.570781,1.443289,10489.58,1327.53,-291.92
14,1309,0.301463,-0.497940,1.403196,6786.57,4331.52,-334.93
15,1419,0.304785,-0.415005,1.392225,3543.56,2845.51,-725.94
16,1519,0.311399,-0.335684,1.393959,5808.56,2989.51,-425.94
17,1619,0.329729,-0.237426,1.375035,6016.56,7117.51,-1062.94
18,1719,0.323575,-0.144037,1.356056,3631.57,8032.52,-6626.93
19,1829,0.257772,-0.119534,1.235610,-14895.42,4079.53,-6312.92
20,1929,0.275741,-0.270807,1.171389,-24875.44,8312.51,2944.06
21,2029,0.204443,-0.371868,1.169389,-16835.44,8698.51,1948.06
22,2139,0.164036,-0.459930,1.209309,-9212.42,-2151.47,-4598.92
23,2239,0.109805,-0.542987,1.263383,-7844.43,-21.48,-1437.93
24,2339,0.081634,-0.630943,1.310243,-7502.44,-4329.49,-50.94
25,2439,0.079607,-0.727019,1.354853,-5856.41,-3457.46,737.09
26,2539,0.099472,-0.813152,1.392790,-3295.42,-1416.47,-1646.92
27,2649,0.107349,-0.905352,1.421997,-3075.42,859.53,3465.08
28,2749,0.140960,-0.989692,1.458157,-766.43,2350.52,-202.93
29,2849,0.141497,-1.073228,1.465437,2872.58,828.53,-3223.92
30,2949,0.143619,-1.125685,1.467505,3110.57,2621.52,248.07
31,3059,0.152948,-1.163828,1.460584,1472.57,-659.48,-45.93
32,3159,0.206783,-1.192624,1.432967,5572.58,10942.53,2645.08
33,3259,0.212607,-1.222264,1.443348,3068.57,3709.52,-1017.93
34,3359,0.215287,-1.245939,1.454076,5391.56,3683.51,-52.94
35,3469,0.217638,-1.253227,1.468578,6847.56,3949.51,686.06
36,3569,0.213173,-1.246604,1.485520,7444.57,4038.52,1100.07
37,3669,0.206063,-1.231910,1.503179,7707.58,4300.53,974.08
38,3769,0.190993,-1.202063,1.504384,8859.58,4722.53,2355.08
39,3879,0.189884,-1.163490,1.533990,2379.57,976.52,3197.07
40,3979,0.185920,-1.138815,1.555640,3043.57,1044.52,210.07
41,4079,0.176416,-1.113850,1.565180,4175.56,-298.49,-42.94
42,4189,0.174637,-1.081936,1.575193,3333.57,732.52,93.07
43,4289,0.191252,-1.053436,1.580830,2638.57,1537.52,328.07
44,4389,0.194828,-1.030767,1.588404,1641.57,2744.52,88.07
45,4489,0.194682,-1.014465,1.596618,1754.58,2627.53,208.08
46,4589,0.196114,-0.999857,1.602978,2188.58,2082.53,264.08
47,4699,0.197752,-0.986818,1.607779,1929.56,2368.51,315.06
48,4799,0.197734,-0.974637,1.612318,1806.56,2500.51,297.06
49,4899,0.190157,-0.967194,1.617586,1860.57,2392.52,275.07
50,4999,0.187544,-0.960134,1.620874,2160.57,2110.52,285.07
1,0,0.031733,-0.135274,1.094076,1621.56,2722.51,271.06
2,99,0.050063,-0.253918,1.176806,1489.58,2921.53,226.08
3,199,0.070661,-0.358281,1.244471,1133.58,3332.53,169.08
4,299,0.081523,-0.448601,1.305960,1782.58,2505.53,508.08
5,399,0.096907,-0.522810,1.354453,2002.56,2155.51,864.06
6,499,0.106047,-0.593267,1.395380,1774.55,2590.50,377.05
7,599,0.103891,-0.662109,1.435258,3434.57,252.52,1256.07
8,699,0.134030,-0.712733,1.464301,4689.57,-857.48,461.07
9,799,0.150327,-0.752852,1.508508,9319.56,1648.51,-629.94
10,899,0.163612,-0.766079,1.523286,11202.56,1523.51,-921.94
11,1009,0.177065,-0.754196,1.527609,12762.57,1291.52,-1059.93
12,1109,0.181872,-0.727542,1.538735,13873.57,1300.52,262.07
13,1209,0.204012,-0.666947,1.510601,14859.58,2702.53,2828.08
14,1309,0.216313,-0.589367,1.460887,10953.57,4762.52,-1748.93
15,1419,0.215910,-0.506835,1.419180,7889.56,2368.51,-618.94
16,1519,0.209140,-0.425147,1.377210,5340.56,2420.51,-331.94
17,1619,0.205089,-0.345897,1.351607,4223.58,1998.53,201.08
18,1719,0.208659,-0.266890,1.338541,5395.57,1080.52,-80.93
19,1829,0.210832,-0.125429,1.306946,6404.56,7056.51,211.06
20,1929,0.226871,-0.057940,1.236328,-4060.42,10533.53,-1100.92
21,2029,0.213990,-0.139039,1.146951,-23648.42,4956.53,-6139.92
22,2139,0.162336,-0.265688,1.152975,-19471.43,12207.52,-4346.93
23,2239,0.121946,-0.351294,1.179537,-7358.43,2199.52,-2547.93
24,2339,0.055608,-0.408861,1.209256,-8631.42,-466.47,-2413.92
25,2439,0.041701,-0.491026,1.275863,-9271.43,-3074.48,1642.07
26,2539,0.055241,-0.584121,1.341560,-4965.42,-1902.47,-1985.92
27,2649,0.063416,-0.673012,1.395535,-3299.43,-118.48,-1192.93
28,2749,0.068993,-0.743716,1.425264,-3179.41,579.54,-131.91
29,2849,0.092611,-0.817402,1.445443,-2542.42,173.53,-371.92
30,2949,0.101554,-0.898198,1.462340,-1478.42,94.53,-2435.92
31,3059,0.121057,-0.969970,1.476976,-259.42,1222.53,-747.92
32,3159,0.126629,-1.036304,1.487366,-1990.43,1338.52,76.07
33,3259,0.135211,-1.086096,1.466186,-4846.42,401.53,501.08
34,3359,0.168891,-1.137264,1.461880,843.57,1518.52,-32.93
35,3469,0.193949,-1.188612,1.468931,2697.57,2415.52,360.07
36,3569,0.208309,-1.226196,1.469670,4242.59,3268.54,-229.91
37,3669,0.220789,-1.251936,1.475882,4886.57,3945.52,-587.93
38,3769,0.225556,-1.269401,1.482866,5525.59,4178.54,-481.91
39,3879,0.225470,-1.275202,1.493654,6793.59,3725.54,1191.09
40,3979,0.222705,-1.269915,1.506267,7205.59,3887.54,1285.09
41,4079,0.216089,-1.255552,1.519661,7413.57,4006.52,1212.07
42,4189,0.208048,-1.230892,1.522128,9574.58,4711.53,3469.08
43,4289,0.141667,-1.162378,1.505915,1109.59,2981.54,2335.09
44,4389,0.139809,-1.128165,1.525368,2221.58,2415.53,-1023.92
45,4489,0.137607,-1.108294,1.541756,2308.59,1987.54,194.09
46,4589,0.133263,-1.087101,1.556125,1995.58,2319.53,176.08
47,4699,0.129132,-1.071229,1.567882,1984.59,2328.54,90.09
48,4799,0.126462,-1.060082,1.577801,2015.57,2245.52,263.07
49,4899,0.126976,-1.050699,1.588631,2076.58,2188.53,168.08
50,4999,0.124776,-1.040635,1.594962,2035.58,2248.53,149.08
1,0,0.024665,-0.144355,1.094809,2767.57,1397.52,137.07
2,99,0.044038,-0.264146,1.176202,2785.59,1306.54,420.09
3,199,0.065374,-0.365089,1.246814,3074.56,907.51,689.06
4,299,0.078365,-0.454077,1.308244,3424.57,614.52,832.07
5,399,0.089041,-0.531731,1.362309,5192.57,-971.48,1658.07
6,499,0.118917,-0.575105,1.393342,6158.56,-2588.49,1690.06
7,599,0.169781,-0.606187,1.417302,5348.57,-1654.48,761.07
8,699,0.212906,-0.629640,1.447043,4954.56,781.51,-638.94
9,799,0.235975,-0.658584,1.486807,8471.57,1950.52,-2185.93
10,899,0.254944,-0.663227,1.489259,12147.57,2332.52,-2459.93
11,1009,0.266013,-0.639636,1.476859,9948.57,2534.52,-2545.93
12,1109,0.262990,-0.612350,1.486809,9936.58,-953.47,-533.92
13,1209,0.284827,-0.543216,1.452420,9596.57,2147.52,753.07
14,1309,0.294307,-0.484580,1.427913,7153.56,3404.51,-480.94
15,1419,0.293595,-0.420054,1.395235,5324.58,3720.53,33.08
16,1519,0.307015,-0.340141,1.384909,4572.58,3883.53,1912.08
17,1619,0.330214,-0.230264,1.434927,3671.58,6597.53,-192.92
18,1719,0.352222,-0.086516,1.411268,4704.57,11766.52,-6567.93
19,1829,0.326159,-0.202220,1.293525,-23403.44,8597.51,-5061.94
20,1929,0.260317,-0.325910,1.252625,-15297.42,8175.53,1330.08
21,2029,0.202081,-0.400102,1.223608,-9515.42,1704.53,-2538.92
22,2139,0.136338,-0.464630,1.242285,-9982.43,80.52,-4104.93
23,2239,0.122737,-0.544985,1.291285,-9041.42,-2674.47,-794.92
24,2339,0.106268,-0.637732,1.348700,-5438.42,-1334.47,-2736.92
25,2439,0.107596,-0.724989,1.392430,-3099.42,-1699.47,-521.92
26,2539,0.122860,-0.791193,1.419164,-2980.42,101.53,-1813.92
27,2649,0.128804,-0.868633,1.435736,-2884.40,-474.45,1227.10
28,2749,0.158355,-0.973001,1.461669,-4302.41,1717.54,290.09
29,2849,0.020015,-1.261464,1.646318,-640.43,-13125.48,-4440.93
30,2949,0.027286,-1.287297,1.610378,3571.57,3152.52,-481.93
31,3059,0.069226,-1.311891,1.595557,4291.58,3328.53,-808.92
32,3159,0.103759,-1.319759,1.583528,5576.57,3594.52,-45.93
33,3259,0.124853,-1.323023,1.577953,5756.58,3425.53,581.08
34,3359,0.139910,-1.318803,1.573838,7122.59,3707.54,1149.09
35,3469,0.164975,-1.284051,1.539797,8393.58,3910.54,2256.09
36,3569,0.169600,-1.257076,1.539556,8495.56,4611.51,671.06
37,3669,0.168074,-1.223618,1.555262,8946.58,4588.53,595.08
38,3769,0.144329,-1.182984,1.580569,4000.58,-429.47,2744.08
39,3879,0.152142,-1.144509,1.587029,5041.57,-1408.48,459.07
40,3979,0.163946,-1.107153,1.595102,3975.57,-11.48,257.07
41,4079,0.184949,-1.065770,1.597276,2805.58,1312.53,173.08
42,4189,0.199908,-1.037186,1.600717,1326.58,3015.53,504.08
43,4289,0.198432,-1.018712,1.606426,1126.59,3227.54,526.09
44,4389,0.197287,-1.004695,1.612010,1759.57,2550.52,383.07
45,4489,0.198439,-0.990838,1.615731,1861.58,2474.53,160.08
46,4589,0.198410,-0.979628,1.618473,1832.58,2472.53,87.08
47,4699,0.198093,-0.972846,1.621372,2192.58,2073.53,268.08
48,4799,0.194253,-0.964005,1.625886,2922.59,1232.54,174.09
49,4899,0.200675,-0.952334,1.626757,2687.57,1521.52,167.07
50,4999,0.206921,-0.942468,1.626673,2666.59,1516.54,273.09
1,0,0.074488,-0.139851,1.093417,4038.58,3028.53,512.08
2,99,0.121781,-0.241183,1.170368,5248.57,5922.52,-1959.93
3,199,0.158611,-0.325008,1.263846,7287.58,1135.53,-2539.92
4,299,0.203320,-0.391022,1.324443,11012.59,5540.54,-1987.91
5,399,0.200436,-0.438747,1.352367,12188.59,2891.54,-6714.91
6,499,0.202744,-0.447381,1.344076,11692.57,-3009.48,-4384.93
7,599,0.209559,-0.434358,1.336993,11326.58,9371.53,1104.08
8,699,0.182649,-0.388535,1.332437,7475.58,3360.53,894.08
9,799,0.165433,-0.353632,1.337536,4461.58,-2925.47,-748.92
10,899,0.186652,-0.304556,1.345661,5769.59,2060.54,3791.09
11,1009,0.219355,-0.212743,1.360349,7243.59,3629.54,-2796.91
12,1109,0.225179,-0.117508,1.394624,10871.58,7899.53,-7584.92
13,1209,0.160275,-0.031011,1.293917,2741.59,6780.54,-10709.92
14,1309,0.158721,-0.141912,1.192862,-15182.42,-1960.46,3772.09
15,1419,0.154231,-0.221456,1.135951,-13825.42,10618.53,2954.08
16,1519,0.099036,-0.274036,1.122861,-17104.41,4806.54,-312.91
17,1619,0.050929,-0.355203,1.176316,-16958.42,-1205.47,3983.08
18,1719,0.060229,-0.441700,1.247223,-11019.41,-5837.46,488.09
19,1829,0.093621,-0.545709,1.310515,-7836.41,-3306.46,-1556.91
20,1929,0.116841,-0.655761,1.375500,-5817.41,545.54,693.09
21,2029,0.138886,-0.766168,1.417830,-4980.40,989.55,817.10
22,2139,0.156982,-0.865013,1.444160,-1581.41,1779.54,292.09
23,2239,0.170259,-0.948555,1.457952,-1279.41,1965.54,-370.91
24,2339,0.176032,-1.025517,1.466307,-1420.41,479.54,241.09
25,2439,0.194032,-1.231395,1.650261,4618.60,-8999.45,-3316.90
26,2539,0.203893,-1.265272,1.627939,2549.59,2471.54,6.09
27,2649,0.213795,-1.291797,1.606602,3095.59,3147.54,-820.91
28,2749,0.221039,-1.307916,1.593172,3619.58,2934.53,182.08
29,2849,0.226648,-1.316948,1.580695,4227.58,2631.53,1053.08
30,2949,0.229731,-1.324021,1.572835,4348.58,2995.53,719.08
31,3059,0.235903,-1.324979,1.567034,5489.59,3584.54,259.09
32,3159,0.234485,-1.317371,1.566351,6540.60,3873.55,433.10
33,3259,0.230148,-1.282358,1.548576,7465.57,3644.52,2044.07
34,3359,0.224082,-1.254959,1.549874,7147.59,3970.54,2315.09
35,3469,0.214567,-1.222605,1.558705,5510.59,3863.54,1087.09
36,3569,0.196996,-1.189575,1.568078,5739.60,3588.55,272.10
37,3669,0.168729,-1.156611,1.581008,2402.58,1605.53,1667.08
38,3769,0.165137,-1.131284,1.589087,3022.58,1146.53,-92.92
39,3879,0.164849,-1.105470,1.595331,1785.59,2604.54,202.09
40,3979,0.160337,-1.086294,1.600492,1235.58,3233.53,331.08
41,4079,0.145992,-1.074919,1.601565,2188.59,2025.54,330.09
42,4189,0.142936,-1.062577,1.606176,2037.59,2228.54,350.09
43,4289,0.141437,-1.051519,1.610937,2042.59,2274.54,201.09
44,4389,0.137673,-1.042449,1.614783,2122.59,2186.54,59.09
45,4489,0.134455,-1.031994,1.617539,1927.59,2534.54,-109.91
46,4589,0.126555,-1.027061,1.619662,2065.58,2219.53,159.08
47,4699,0.128099,-1.022063,1.621449,2103.59,2186.54,337.09
48,4799,0.131005,-1.016588,1.622912,2080.59,2221.54,201.09
49,4899,0.131661,-1.010396,1.623753,2052.58,2236.53,260.08
50,4999,0.130590,-1.005022,1.624981,2037.59,2278.54,125.09
1,0,0.017085,-0.147889,1.094644,2075.59,2188.54,331.09
2,99,0.030929,-0.274382,1.176337,2045.59,2245.54,287.09
3,199,0.039804,-0.383769,1.247625,2437.59,1782.54,231.09
4,299,0.048117,-0.477187,1.307670,3256.59,749.54,378.09
5,399,0.054030,-0.551520,1.356384,4421.60,-747.45,519.10
6,499,0.071525,-0.606281,1.397515,4784.59,-817.46,-456.91
7,609,0.101428,-0.649660,1.431763,4751.59,-884.46,546.09
8,709,0.136936,-0.675893,1.457468,4211.61,457.56,1783.11
9,809,0.186380,-0.742869,1.514748,8082.58,3874.53,634.08
10,909,0.201912,-0.749610,1.516396,13380.60,5263.55,-3844.90
11,1019,0.196657,-0.716924,1.497564,11458.59,1918.54,-3303.91
12,1119,0.183382,-0.677440,1.493660,10171.58,2850.53,-806.92
13,1219,0.168840,-0.634340,1.480618,10143.58,383.53,-339.92
14,1319,0.167868,-0.573150,1.456459,8397.58,-55.47,3038.08
15,1429,0.195387,-0.498689,1.426384,6301.59,83.54,2964.09
16,1529,0.227915,-0.431022,1.414682,4988.59,2470.54,1408.09
17,1629,0.258566,-0.351055,1.408141,6811.60,2978.55,442.10
18,1729,0.302198,-0.225351,1.373833,2092.59,11473.54,-104.91
19,1839,0.275968,-0.141738,1.346374,-5263.41,15959.54,-2341.91
20,1939,0.217472,-0.183607,1.278814,-17621.41,11148.54,-1022.91
21,2039,0.200727,-0.321442,1.277895,-19656.41,9504.54,2832.09
22,2149,0.168257,-0.417690,1.282057,-8760.42,5863.54,-4713.91
23,2249,0.136831,-0.494576,1.287408,-6771.40,-1015.45,-5219.90
24,2349,0.092376,-0.571757,1.320575,-8525.41,-1061.46,-1873.91
25,2449,0.089105,-0.655306,1.363489,-5135.40,-1819.45,-702.90
26,2549,0.094673,-0.750675,1.411923,-5615.41,-1398.46,-575.91
27,2659,0.105138,-0.838935,1.444907,-2742.40,321.55,-469.90
28,2759,0.097352,-0.915696,1.461371,-1191.40,959.55,-2181.90
29,2859,0.113696,-0.990390,1.455279,-1920.40,1790.55,-1291.90
30,2959,0.111822,-1.061883,1.456234,-1578.42,3993.53,22.08
31,3069,0.112957,-1.132319,1.453842,-334.41,1725.54,272.09
32,3169,0.119617,-1.198654,1.455929,230.59,762.54,-188.91
33,3269,0.125059,-1.252054,1.449371,1133.60,2068.55,-435.90
34,3369,0.150027,-1.271607,1.406260,3203.59,3608.54,520.09
35,3479,0.154422,-1.314741,1.415228,5325.60,2925.55,-1211.90
36,3579,0.147246,-1.338423,1.417760,5555.60,-102.45,962.10
37,3679,0.159218,-1.353151,1.428683,6491.59,-1517.46,1097.09
38,3779,0.182962,-1.354061,1.444358,7796.59,4845.54,-1959.91
39,3889,0.179982,-1.342841,1.458524,8047.59,4792.54,-143.91
40,3989,0.172028,-1.322483,1.479665,9002.58,4443.54,2497.09
41,4089,0.160288,-1.287563,1.494358,10016.59,5525.54,2799.09
42,4199,0.084519,-1.205990,1.467442,1934.59,2521.54,93.09
43,4299,0.091837,-1.167103,1.491164,2287.59,1988.54,275.09
44,4399,0.092711,-1.140164,1.512610,2021.58,2247.53,340.08
45,4499,0.090250,-1.117706,1.530417,2128.59,2158.54,193.09
46,4599,0.091069,-1.099093,1.544821,2079.59,2196.54,308.09
47,4709,0.090428,-1.084041,1.557449,2094.58,2207.53,149.08
48,4809,0.088657,-1.068921,1.568714,2163.58,2126.53,80.08
49,4909,0.090118,-1.056930,1.576952,1902.59,2376.54,380.09
50,5009,0.091176,-1.047195,1.584834,2067.58,2209.53,317.08
1,0,0.033748,-0.143147,1.095322,2007.59,2302.54,378.09
2,99,0.062286,-0.263393,1.176693,2032.58,2267.53,240.08
3,199,0.082864,-0.366005,1.245968,2027.58,2168.53,379.08
4,299,0.102515,-0.452768,1.304816,2017.58,2328.53,322.08
5,399,0.120153,-0.528110,1.354286,2046.57,2416.52,429.07
6,499,0.127692,-0.596910,1.395751,2406.59,1895.54,489.09
7,599,0.102296,-0.660573,1.437716,4027.58,227.53,-164.92
8,699,0.106764,-0.700422,1.467160,5329.58,2301.53,-233.92
9,799,0.137003,-0.710381,1.466626,5278.58,276.53,-3519.92
10,899,0.124418,-0.745817,1.488475,7481.58,4218.53,-1280.92
11,1009,0.138770,-0.732450,1.488351,9920.58,1968.53,303.08
12,1109,0.150970,-0.704444,1.488648,5810.58,2551.53,-1256.92
13,1209,0.141326,-0.695946,1.524534,5200.58,2258.53,-866.92
14,1309,0.155119,-0.702072,1.543903,8290.58,-2276.47,2281.08
15,1419,0.202311,-0.637735,1.529368,7264.58,843.53,2622.08
16,1519,0.254894,-0.584678,1.575844,7699.59,2927.54,-1877.91
17,1619,0.279960,-0.477232,1.608684,13540.57,7076.52,-6219.93
18,1719,0.250638,-0.346792,1.566469,11967.59,9939.54,-5678.91
19,1829,0.259900,-0.372021,1.428120,-7740.43,13593.52,-272.93
20,1929,0.201617,-0.426936,1.336159,-11192.42,10776.53,-2272.92
21,2029,0.148597,-0.450140,1.291664,-9125.42,-372.47,-2806.92
22,2139,0.101424,-0.476511,1.289971,-12696.41,-2121.46,222.09
23,2239,0.111096,-0.536718,1.344470,-10833.42,-3293.47,563.08
24,2339,0.108623,-0.601664,1.395280,-9464.42,1780.53,-1534.92
25,2439,0.111374,-0.677212,1.444969,-8840.41,3180.54,-395.91
26,2539,0.107999,-0.750399,1.467283,-5064.41,1168.54,-2501.91
27,2649,0.088376,-0.835221,1.470979,-5177.41,-722.46,-2586.91
28,2749,0.088964,-0.930282,1.486719,-4415.40,51.55,-764.90
29,2849,0.090763,-1.022637,1.495958,-2476.42,1771.53,-169.92
30,2949,0.191737,-1.067485,1.424857,5306.58,-1712.47,900.08
31,3059,0.190260,-1.126846,1.437572,1133.58,790.53,785.08
32,3159,0.193015,-1.186073,1.438895,3325.59,2415.54,404.09
33,3259,0.183803,-1.229916,1.438719,4887.59,2937.54,-128.91
34,3359,0.175496,-1.261616,1.444630,5857.59,1135.54,885.09
35,3469,0.180319,-1.273931,1.457089,8869.58,1142.53,-203.92
36,3569,0.187184,-1.272002,1.476798,8810.59,1569.54,-62.91
37,3669,0.192396,-1.257784,1.497743,10059.58,2442.54,389.09
38,3769,0.187195,-1.222279,1.517836,9496.58,2365.53,710.08
39,3879,0.206706,-1.174008,1.537240,8425.60,1630.55,247.10
40,3979,0.205566,-1.115236,1.555161,6347.59,2572.54,163.09
41,4079,0.198060,-1.067714,1.567905,3851.59,2079.54,682.09
42,4189,0.203307,-1.018276,1.580934,3925.59,2463.54,1020.09
43,4289,0.203226,-0.980904,1.594956,1973.59,2888.54,757.09
44,4389,0.211159,-0.951536,1.603323,1283.59,2210.54,711.09
45,4489,0.215503,-0.930676,1.608037,519.59,2428.54,-3.91
46,4589,0.211120,-0.917485,1.612500,808.57,1998.52,-380.93
47,4699,0.204337,-0.910045,1.616258,1585.59,2264.54,-372.91
48,4799,0.205237,-0.903245,1.618354,2080.59,2225.54,222.09
49,4899,0.204097,-0.893180,1.620226,1572.58,1987.53,449.08
50,4999,0.206791,-0.893103,1.620188,1104.58,2502.53,343.08
1,0,0.035725,-0.127107,1.096530,2347.58,2067.53,258.08
2,99,0.057595,-0.238700,1.180118,2287.58,2174.53,351.08
3,199,0.078766,-0.330789,1.248587,2139.58,2031.53,233.08
4,299,0.095993,-0.410511,1.306840,1160.58,2259.53,241.08
5,399,0.112173,-0.485874,1.356429,1468.59,2145.54,394.09
6,499,0.128619,-0.547973,1.397975,1949.59,1977.54,774.09
7,599,0.139613,-0.598816,1.432666,2153.58,2370.53,497.08
8,699,0.149708,-0.644981,1.461842,2210.58,2227.53,456.08
9,799,0.165046,-0.685155,1.487961,2498.58,2880.53,165.08
10,899,0.176234,-0.715091,1.510509,2915.58,2370.53,89.08
11,1009,0.177558,-0.742112,1.537769,4146.59,2269.54,-36.91
12,1109,0.197325,-0.758506,1.544716,4623.59,2417.54,-436.91
13,1209,0.231576,-0.785808,1.577556,5954.58,1593.53,-1879.92
14,1309,0.255324,-0.779809,1.586867,11135.58,3965.54,-390.91
15,1419,0.238652,-0.767349,1.566583,12329.59,7949.54,-5819.91
16,1519,0.188097,-0.716456,1.535975,12683.60,1476.55,-1813.90
17,1619,0.160982,-0.656828,1.506900,12932.58,-2716.47,3061.08
18,1719,0.171241,-0.576957,1.469607,11826.57,-1629.48,5870.07
19,1829,0.211950,-0.472794,1.436845,8158.59,2138.54,4581.09
20,1929,0.252668,-0.371327,1.406765,7219.59,3898.54,-476.91
21,2029,0.272484,-0.298704,1.364533,7708.58,3717.53,-4110.92
22,2139,0.267098,-0.241479,1.320873,7247.58,3852.53,-4501.92
23,2239,0.255012,-0.159659,1.272794,4369.57,5983.52,-4532.93
24,2339,0.207698,-0.052337,1.205541,-8628.42,4591.53,-3949.92
25,2439,0.176745,-0.148852,1.117852,-29054.43,7663.52,1090.07
26,2539,0.150198,-0.271227,1.116339,-21660.42,15635.53,6124.08
27,2649,0.135780,-0.351095,1.133419,-10668.43,2774.52,-3283.93
28,2749,0.073813,-0.423138,1.162603,-10782.42,-238.47,-7486.92
29,2849,0.056572,-0.520190,1.232198,-10043.39,-2795.44,-2453.89
30,2949,0.050761,-0.629345,1.285915,-6620.40,-3205.45,-7006.90
31,3059,0.059646,-0.740126,1.344245,-7220.41,-1474.46,2452.09
32,3159,0.074138,-0.842163,1.383206,-3966.41,2513.54,1292.09
33,3259,0.095373,-0.944111,1.399092,-1843.40,1637.55,-776.90
34,3359,0.101943,-1.033037,1.406773,-2002.41,220.54,-1536.91
35,3469,0.111335,-1.112818,1.409713,-1651.41,-1363.46,1263.09
36,3569,0.196113,-1.127988,1.348674,7618.60,-2693.45,246.10
37,3669,0.181328,-1.191493,1.374189,4577.60,3574.55,-1537.90
38,3769,0.188261,-1.232930,1.386832,6025.58,3311.53,-1415.92
39,3879,0.198200,-1.253594,1.404573,4639.58,2053.53,604.08
40,3979,0.212545,-1.271342,1.414599,4900.59,2834.54,415.09
41,4079,0.197656,-1.276266,1.429420,5507.59,1910.54,459.09
42,4189,0.205436,-1.283636,1.447218,6946.59,1760.54,365.09
43,4289,0.213989,-1.277286,1.463738,8302.58,2373.53,-830.92
44,4389,0.214668,-1.254438,1.483127,8775.58,2662.54,-1119.91
45,4489,0.229106,-1.213996,1.485838,9685.58,2449.54,158.09
46,4589,0.217153,-1.156733,1.493489,9813.58,2756.53,188.08
47,4699,0.232902,-1.094583,1.520683,5495.58,2955.53,419.08
48,4799,0.239258,-1.044978,1.540520,2269.57,2032.52,1650.07
49,4899,0.243159,-1.012115,1.555679,2608.58,2022.53,1207.08
50,4999,0.242739,-0.974239,1.569058,2678.57,2275.52,351.07
1,0,0.034132,-0.124488,1.093802,1782.59,2175.54,344.09
2,99,0.062998,-0.232317,1.174614,2154.60,2364.55,21.10
3,199,0.088706,-0.321170,1.242828,2213.59,2624.54,-30.91
4,299,0.108140,-0.398527,1.300700,1996.59,2153.54,91.09
5,399,0.122133,-0.466037,1.348114,2631.58,1909.53,90.08
6,499,0.139117,-0.519594,1.391073,2532.59,2020.54,513.09
7,599,0.154432,-0.564660,1.429106,2895.59,2332.54,88.09
8,699,0.178656,-0.587274,1.461454,-281.41,915.54,1618.09
9,799,0.203165,-0.629201,1.490469,-7239.40,3734.55,2068.10
10,899,0.192284,-0.720613,1.533808,3588.58,16070.53,1913.08
11,1009,0.174795,-0.767130,1.549809,13851.59,-10934.46,-7182.91
12,1109,0.210576,-0.772429,1.511408,10219.58,1600.54,-3337.91
13,1209,0.172179,-0.772721,1.519728,9789.58,4111.54,1437.09
14,1309,0.174515,-0.741787,1.530755,12561.60,-4242.45,2667.10
15,1419,0.204974,-0.688943,1.525589,10917.58,1773.53,2926.08
16,1519,0.214897,-0.614600,1.471723,10079.60,-1360.45,301.10
17,1619,0.258433,-0.541154,1.442618,3677.59,3223.54,1498.09
18,1719,0.265372,-0.486929,1.420845,1309.59,4544.54,-1906.91
19,1829,0.265887,-0.435875,1.415448,271.58,284.53,560.08
20,1929,0.283848,-0.387133,1.429171,1926.58,3084.53,736.08
21,2029,0.283661,-0.326861,1.464713,4565.59,3576.54,-852.91
22,2139,0.311553,-0.271400,1.499684,7358.57,2461.52,-2371.93
23,2239,0.293422,-0.202633,1.490244,8366.58,8156.54,-2656.91
24,2339,0.263088,-0.210758,1.363768,-7731.40,-5683.45,-3984.90
25,2439,0.266693,-0.281568,1.285085,-15277.42,2059.54,4136.09
26,2539,0.241833,-0.360159,1.265976,-15974.42,6980.54,5710.09
27,2649,0.267724,-0.443056,1.315176,-11784.39,4479.56,3688.11
28,2749,0.260068,-0.519231,1.363075,-9138.40,-895.45,3195.10
29,2849,0.283572,-0.603408,1.417338,-6401.40,3588.55,2786.10
30,2949,0.244370,-0.690394,1.449913,-5258.41,8.54,1700.09
31,3059,0.257557,-0.782862,1.469691,-4716.40,2455.55,839.10
32,3159,0.266459,-0.888816,1.479984,-4935.41,5928.54,1931.09
33,3259,0.246450,-0.985523,1.486041,-1674.40,2477.55,-1588.90
34,3359,0.235394,-1.063861,1.474491,-2022.40,-614.45,-1346.90
35,3469,0.222114,-1.116331,1.421643,5238.60,-284.45,-1295.90
36,3569,0.193211,-1.126562,1.351014,2296.60,9920.55,2777.10
37,3669,0.176700,-1.192350,1.401520,6575.58,1933.53,-542.92
38,3769,0.183558,-1.216630,1.412774,7978.59,1980.54,27.09
39,3879,0.183748,-1.224688,1.441419,9149.60,2320.55,-127.90
40,3979,0.183415,-1.222675,1.464155,8552.59,2874.54,-1193.91
41,4079,0.182051,-1.196483,1.476267,9511.60,2273.55,-458.90
42,4189,0.191348,-1.155066,1.493246,9908.59,2297.54,-373.91
43,4289,0.208423,-1.098201,1.515002,6777.59,1053.54,1647.09
44,4389,0.206091,-1.048401,1.534153,4134.59,2435.54,-812.91
45,4489,0.213063,-1.004624,1.549718,2032.59,1933.54,416.09
46,4589,0.218477,-0.974482,1.561996,1589.60,1907.55,815.10
47,4699,0.221522,-0.951003,1.572853,1852.60,2308.55,202.10
48,4799,0.221676,-0.930570,1.582485,1853.60,1952.55,683.10
49,4899,0.216679,-0.915290,1.590727,1906.60,2131.55,607.10
50,4999,0.219738,-0.901495,1.596945,2121.60,2114.55,403.10
1,0,0.029866,-0.124635,1.093582,1808.59,2167.54,349.09
2,99,0.057376,-0.228871,1.177595,1313.60,2018.55,776.10
3,199,0.083542,-0.320402,1.247101,594.57,2048.52,810.07
4,299,0.100657,-0.406388,1.305339,302.59,1697.54,610.09
5,399,0.115332,-0.485171,1.353724,1795.59,2243.54,227.09
6,499,0.128191,-0.544647,1.396427,1805.59,1960.54,501.09
7,599,0.135752,-0.595458,1.428347,1403.59,1744.54,749.09
8,699,0.150309,-0.642328,1.456048,1532.59,2765.54,1203.09
9,799,0.193645,-0.681654,1.460129,1808.60,3203.55,2365.10
10,899,0.193127,-0.730353,1.482604,3153.58,6551.53,653.08
11,1009,0.196441,-0.767554,1.526940,9953.58,-306.47,-4687.92
12,1109,0.185982,-0.779583,1.539302,14742.58,464.53,-2496.92
13,1209,0.191557,-0.758789,1.523699,15167.59,3130.54,-4276.91
14,1309,0.186171,-0.714655,1.502325,13198.59,2624.54,-808.91
15,1419,0.174817,-0.645684,1.465535,13123.58,3546.53,2177.08
16,1519,0.162036,-0.565452,1.430949,7831.59,1649.54,2227.09
17,1619,0.159448,-0.485463,1.395857,5779.60,1969.55,2643.10
18,1719,0.158128,-0.405661,1.375605,3427.60,2017.55,1983.10
19,1829,0.172240,-0.334644,1.370513,5163.60,2409.55,43.10
20,1929,0.199872,-0.198548,1.352909,5334.59,5896.54,-3043.91
21,2029,0.195179,-0.081199,1.347009,-2942.42,16869.53,-13612.92
22,2139,0.089622,-0.135902,1.261208,-15304.40,6118.55,-5353.90
23,2239,0.078285,-0.266702,1.243996,-13838.42,-5465.46,6608.09
24,2339,0.064804,-0.327473,1.202908,-8289.41,6100.54,-852.91
25,2439,0.031849,-0.389363,1.204585,-10463.42,-1007.47,-5017.92
26,2539,-0.001474,-0.458340,1.241643,-11014.41,-3514.46,-1499.91
27,2649,-0.000445,-0.546615,1.294969,-8885.40,-3122.45,-419.90
28,2749,0.008320,-0.643603,1.342127,-6332.41,-3271.46,280.09
29,2849,0.028918,-0.738164,1.393692,-5517.40,1124.55,-1929.90
30,2949,0.049484,-0.836504,1.422122,-3208.41,1525.54,-1359.91
31,3059,0.047483,-0.932764,1.440686,-1383.40,1023.55,-578.90
32,3159,0.056512,-1.012497,1.451832,-1183.40,626.55,424.10
33,3259,0.057650,-1.083914,1.460409,-594.39,751.56,481.11
34,3359,0.059880,-1.157839,1.462720,151.60,-1856.45,191.10
35,3469,0.222616,-1.250466,1.553453,6622.60,2611.55,1070.10
36,3569,0.218248,-1.286810,1.541642,3135.61,2806.56,-923.89
37,3669,0.215541,-1.315304,1.531364,5416.60,2308.55,-8.90
38,3769,0.215695,-1.329984,1.527737,7174.60,1770.55,666.10
39,3879,0.212511,-1.330670,1.526247,7512.61,1967.56,89.11
40,3979,0.224417,-1.319791,1.531572,10378.61,2173.56,-423.89
41,4079,0.237814,-1.289834,1.533864,10205.59,1795.54,80.09
42,4189,0.237721,-1.225461,1.540336,11050.61,1130.56,1412.11
43,4289,0.239363,-1.150035,1.549828,7526.60,2113.55,305.10
44,4389,0.231384,-1.084385,1.563756,4226.60,2580.55,60.10
45,4489,0.228245,-1.038762,1.575228,2284.60,2447.55,11.10
46,4589,0.227299,-1.004653,1.583240,2854.61,1941.56,844.11
47,4699,0.224700,-0.973517,1.589355,2168.60,1745.55,925.10
48,4799,0.230163,-0.947894,1.594680,2122.61,2355.56,599.11
49,4899,0.234403,-0.920219,1.599683,2144.59,2037.54,479.09
50,4999,0.239197,-0.898489,1.604887,1415.58,2269.53,216.08
1,0,0.037300,-0.119489,1.093948,2055.60,2317.55,336.10
2,99,0.064977,-0.224497,1.173164,1759.59,2353.54,461.09
3,199,0.090278,-0.314359,1.241064,2119.59,2241.54,521.09
4,299,0.114091,-0.389605,1.300025,2290.60,2350.55,508.10
5,399,0.132556,-0.450727,1.350746,2491.60,2156.55,594.10
6,499,0.145377,-0.502406,1.395012,2180.59,2283.54,667.09
7,599,0.156055,-0.546534,1.430001,1385.60,2518.55,454.10
8,699,0.166266,-0.592063,1.464137,1243.60,1996.55,-106.90
9,799,0.171412,-0.629555,1.490864,2323.60,2762.55,410.10
10,899,0.185143,-0.663784,1.516145,3103.60,2963.55,-589.90
11,1009,0.195165,-0.695516,1.540215,4688.59,2593.54,-657.91
12,1109,0.202349,-0.727652,1.575141,7804.60,2433.55,-612.90
13,1209,0.198768,-0.748137,1.600011,13379.60,1529.55,-574.90
14,1309,0.203305,-0.728709,1.571310,18550.60,3048.55,-597.90
15,1419,0.186873,-0.646845,1.503335,14711.61,5541.56,-1631.89
16,1519,0.172156,-0.551369,1.466724,7627.60,4549.55,2337.10
17,1619,0.169661,-0.465051,1.421193,8110.60,3325.55,2686.10
18,1719,0.169391,-0.362182,1.389103,5080.59,3414.54,1155.09
19,1829,0.174763,-0.284321,1.367777,6831.59,4226.54,-869.91
20,1929,0.182626,-0.176774,1.325827,8905.60,-404.45,1716.10
21,2029,0.217801,0.010148,1.257559,-97.40,10102.55,-2315.90
22,2139,0.224976,-0.159606,1.214931,-22719.40,-5161.45,-14977.90
23,2239,0.207656,-0.277072,1.182047,-10129.40,14068.55,-4119.90
24,2339,0.141646,-0.345388,1.168507,-8418.40,2596.55,-4103.90
25,2439,0.059536,-0.388478,1.192483,-10958.40,1435.55,541.10
26,2539,-0.000022,-0.446363,1.229543,-12103.42,-6339.47,3570.08
27,2649,0.004103,-0.532186,1.284574,-11795.39,-2525.44,1194.11
28,2749,0.014622,-0.624124,1.338675,-8878.39,-2234.44,-1059.89
29,2849,0.020176,-0.724152,1.380339,-5726.38,-1138.43,-2140.88
30,2949,0.031013,-0.822249,1.406470,-3993.39,-1412.44,-1381.89
31,3059,0.052528,-0.914147,1.428645,-3693.39,-418.44,27.11
32,3159,0.082736,-1.006963,1.442971,-2182.40,856.55,-921.90
33,3259,0.104917,-1.088933,1.443905,55.63,674.58,-257.87
34,3359,0.120657,-1.139930,1.423093,-1932.39,390.56,496.11
35,3469,0.119772,-1.154092,1.352704,304.59,-3780.46,57.09
36,3569,0.139949,-1.206265,1.391642,4271.62,3560.57,-1741.88
37,3669,0.148969,-1.243032,1.407178,5038.61,2359.56,-209.89
38,3769,0.150503,-1.261192,1.423625,5368.61,1866.56,769.11
39,3879,0.159093,-1.271703,1.439363,7082.59,1770.54,772.09
40,3979,0.171559,-1.276279,1.456164,9912.60,1962.55,431.10
41,4079,0.181221,-1.243529,1.478850,11417.60,2609.55,-2040.90
42,4189,0.189269,-1.171929,1.503608,8839.60,2120.55,386.10
43,4289,0.196238,-1.120793,1.524359,4415.60,2560.55,1525.10
44,4389,0.201392,-1.090034,1.540972,3682.61,1908.56,1254.11
45,4489,0.198266,-1.060740,1.555184,3637.60,2380.55,232.10
46,4589,0.197312,-1.032672,1.568052,3362.60,1949.55,709.10
47,4699,0.204430,-1.001435,1.578935,1963.62,2548.57,793.12
48,4799,0.204840,-0.979388,1.586465,1394.61,1980.56,784.11
49,4899,0.203944,-0.967056,1.592938,1650.62,2205.57,175.12
50,4999,0.205911,-0.953975,1.599154,2311.61,2178.56,372.11
1,0,0.032961,-0.129029,1.096640,2164.61,2299.56,173.11
2,99,0.062296,-0.238282,1.179352,2016.61,2243.56,214.11
3,199,0.087907,-0.328877,1.248833,1561.58,2141.53,442.08
4,299,0.106162,-0.411779,1.306903,1292.60,2352.55,76.10
5,399,0.122539,-0.486017,1.356317,1835.61,2421.56,-44.89
6,499,0.136313,-0.546263,1.398356,2311.60,2063.55,478.10
7,599,0.154906,-0.596777,1.432734,2347.61,2349.56,141.11
8,699,0.174025,-0.638761,1.461919,2150.62,2341.57,-194.88
9,799,0.182163,-0.678201,1.489033,2960.61,2228.56,342.11
10,899,0.191187,-0.706507,1.513033,3544.59,2390.54,262.09
11,1009,0.196220,-0.726301,1.530795,4627.61,2516.56,-222.89
12,1109,0.215074,-0.749186,1.555287,5843.61,4112.56,622.11
13,1209,0.213228,-0.763255,1.577167,5781.60,6736.55,-832.90
14,1309,0.183992,-0.763861,1.587616,8310.61,5795.56,-3695.89
15,1419,0.151707,-0.760385,1.591939,14707.60,1853.55,889.10
16,1519,0.133549,-0.701180,1.548006,15752.59,-553.46,4563.09
17,1619,0.143730,-0.636959,1.511176,9048.59,-710.46,3450.09
18,1719,0.170622,-0.568747,1.478460,9106.61,1109.56,1269.11
19,1829,0.167058,-0.476178,1.455266,7473.59,3621.54,-150.91
20,1929,0.174337,-0.366862,1.430387,7292.59,3624.54,1321.09
21,2029,0.197114,-0.260704,1.387872,7095.60,4436.55,-1121.90
22,2139,0.204920,-0.134325,1.341205,1358.60,8891.55,-11022.90
23,2239,0.087098,-0.104393,1.278266,-13542.41,16300.54,-8578.91
24,2339,0.105731,-0.246511,1.231799,-22088.40,196.55,3478.10
25,2439,0.110545,-0.332117,1.193419,-9134.39,5044.56,-3675.89
26,2539,0.084425,-0.388788,1.178832,-3791.40,-308.45,-6292.90
27,2649,0.037175,-0.446791,1.194063,-11720.39,-6489.44,-1516.89
28,2749,0.024240,-0.526178,1.253025,-7407.39,-3241.44,-1628.89
29,2849,0.022821,-0.610283,1.307152,-7023.40,-3842.45,-1860.90
30,2949,0.028994,-0.703562,1.366545,-7661.38,1366.57,-1945.88
31,3059,0.014026,-0.795135,1.402069,-2554.40,-1936.45,-1064.90
32,3159,0.019761,-0.884471,1.430269,-2291.39,-2131.44,498.11
33,3259,0.044356,-0.960810,1.451346,-2543.39,2846.56,-1506.89
34,3359,0.053635,-1.035421,1.459154,-1857.40,1499.55,66.10
35,3469,0.075126,-1.112536,1.473902,-915.38,-379.43,-62.88
36,3569,0.101011,-1.172993,1.468146,853.61,1109.56,130.11
37,3669,0.108860,-1.216673,1.453219,-981.37,1904.58,-247.87
38,3769,0.115256,-1.256878,1.457359,4288.61,1789.56,517.11
39,3879,0.130379,-1.291162,1.454194,5645.60,2290.55,-125.90
40,3979,0.143087,-1.308456,1.461428,7164.61,1360.56,1047.11
41,4079,0.153852,-1.312628,1.471257,7794.60,749.55,1588.10
42,4189,0.171005,-1.303722,1.486333,8801.62,1627.57,1178.12
43,4289,0.189118,-1.271855,1.473457,9498.60,2552.55,1099.10
44,4389,0.186972,-1.245939,1.504205,12771.60,3311.55,273.10
45,4489,0.172717,-1.162497,1.518348,11117.62,2258.57,615.12
46,4589,0.185061,-1.086573,1.539690,6223.60,2347.55,2804.10
47,4699,0.173399,-1.026139,1.556182,2104.60,2204.55,433.10
48,4799,0.176981,-0.989931,1.568571,965.61,1857.56,910.11
49,4899,0.183925,-0.964995,1.576446,1628.61,2279.56,271.11
50,4999,0.183694,-0.946949,1.591033,2448.61,2407.56,-53.89
1,0,0.031661,-0.114362,1.091678,1995.62,1468.57,487.12
2,99,0.058628,-0.217484,1.172607,1703.62,2312.57,182.12
3,199,0.081989,-0.302775,1.241818,1612.61,2273.56,225.11
4,299,0.101717,-0.378917,1.298853,1248.60,2297.55,199.10
5,399,0.121563,-0.446092,1.349347,1433.60,2277.55,271.10
6,499,0.130100,-0.504966,1.392139,1683.61,2381.56,49.11
7,599,0.151291,-0.553763,1.427285,2210.61,2461.56,1003.11
8,699,0.167417,-0.590811,1.458276,2053.60,2308.55,210.10
9,799,0.176932,-0.625633,1.484417,1706.61,2223.56,371.11
10,899,0.183335,-0.658601,1.506618,1857.62,2573.57,280.12
11,1009,0.181800,-0.687980,1.525380,2331.59,2418.54,606.09
12,1109,0.186960,-0.710955,1.540777,2408.61,2333.56,3.11
13,1209,0.186786,-0.730173,1.553957,3055.60,2204.55,-480.90
14,1309,0.189916,-0.744530,1.561150,4284.62,2164.57,266.12
15,1419,0.190050,-0.751443,1.569168,4758.60,2139.55,281.10
16,1519,0.197030,-0.755158,1.570985,7305.60,3297.55,203.10
17,1619,0.200967,-0.746084,1.575495,9945.60,3468.55,266.10
18,1719,0.188310,-0.717314,1.584163,9465.60,1888.55,1388.10
19,1829,0.194727,-0.683173,1.574795,14717.60,1618.55,1127.10
20,1929,0.205876,-0.604898,1.532683,11941.60,2515.55,8.10
21,2029,0.210152,-0.532157,1.493701,8535.60,2980.55,23.10
22,2139,0.207599,-0.457089,1.450350,6883.62,3852.57,-1108.88
23,2239,0.191018,-0.379383,1.421155,3833.60,4777.55,-638.90
24,2339,0.180530,-0.306870,1.406447,6591.58,4332.53,2335.08
25,2439,0.199375,-0.168274,1.387426,6224.59,4082.54,-834.91
26,2539,0.167492,-0.077165,1.397754,7312.59,12503.54,-6700.91
27,2649,0.118658,-0.107589,1.295333,-3709.39,-4248.44,-5032.89
28,2749,0.139276,-0.200850,1.206224,-9140.40,4398.55,-1974.90
29,2849,0.097275,-0.257747,1.146192,-11974.39,3728.56,-5427.89
30,2949,0.037055,-0.308673,1.139568,-14783.40,1144.55,-1211.90
31,3059,-0.004060,-0.365253,1.191707,-14517.39,-5235.44,3168.11
32,3159,0.008196,-0.437187,1.249923,-10696.38,-1255.43,-1263.88
33,3259,0.008561,-0.538834,1.319878,-9635.41,374.54,-3666.91
34,3359,0.016690,-0.635139,1.370239,-7829.40,2431.55,-1835.90
35,3469,0.015562,-0.716468,1.408670,-3441.39,-1785.44,-1690.89
36,3569,0.014603,-0.796950,1.422806,-4352.38,-2174.43,-362.88
37,3669,0.032153,-0.885226,1.438612,-4420.39,-268.44,1689.11
38,3769,0.046979,-0.980458,1.453274,-2299.40,834.55,32.10
39,3879,0.084355,-1.077884,1.456087,-2137.38,3241.57,252.12
40,3979,0.098547,-1.140043,1.453772,-1250.39,806.56,155.11
41,4079,0.107516,-1.202435,1.426243,4843.61,282.56,832.11
42,4189,0.141304,-1.230695,1.427397,4808.60,2347.55,755.10
43,4289,0.143035,-1.264035,1.430924,7450.60,1956.55,352.10
44,4389,0.162524,-1.285692,1.446428,8420.60,1481.55,635.10
45,4489,0.175043,-1.303331,1.451275,14294.61,2355.56,-866.89
46,4589,0.169955,-1.249567,1.448308,18657.62,1576.57,916.12
47,4699,0.186084,-1.152031,1.481932,10926.62,3770.57,782.12
48,4799,0.196863,-1.071231,1.504872,2134.61,3260.56,1208.11
49,4899,0.210640,-1.037067,1.520948,2444.61,1401.56,697.11
50,4999,0.211346,-1.001014,1.538366,3788.62,1344.57,230.12
1,0,0.032686,-0.141535,1.095212,1713.61,2280.56,290.11
2,99,0.059957,-0.259514,1.176966,2305.61,2161.56,340.11
3,199,0.085224,-0.359247,1.244699,1870.61,2469.56,310.11
4,299,0.102288,-0.445448,1.303371,1938.61,2488.56,415.11
5,399,0.114138,-0.517163,1.352894,2164.61,2145.56,685.11
6,499,0.127323,-0.581526,1.395703,1761.61,2561.56,225.11
7,599,0.129155,-0.637609,1.424107,2631.60,2408.55,-600.90
8,699,0.146991,-0.683978,1.455227,3055.60,2876.55,-47.90
9,799,0.157591,-0.724235,1.483052,4461.60,2525.55,193.10
10,899,0.162115,-0.751312,1.503151,6303.59,2524.54,-442.91
11,1009,0.169697,-0.756218,1.515218,7908.60,1776.55,-673.90
12,1109,0.177129,-0.747260,1.524633,8081.59,1858.54,-514.91
13,1209,0.171619,-0.725180,1.537689,7744.61,-507.44,846.11
14,1309,0.184329,-0.692826,1.532966,7933.60,-3533.45,2117.10
15,1419,0.216520,-0.652141,1.520456,6632.60,1720.55,1951.10
16,1519,0.235625,-0.621221,1.517477,5409.62,2039.57,-1319.88
17,1619,0.246719,-0.580291,1.511300,4401.60,1694.55,975.10
18,1719,0.269954,-0.542589,1.508192,4076.60,1421.55,1934.10
19,1829,0.297358,-0.499372,1.511556,4426.62,3805.57,790.12
20,1929,0.310197,-0.447825,1.524597,4504.61,4830.56,-244.89
21,2029,0.349966,-0.318500,1.579077,6535.59,11947.54,-7819.91
22,2139,0.262994,-0.230710,1.558570,724.61,7041.56,-2922.89
23,2239,0.278112,-0.378654,1.455647,-19383.39,3865.55,11170.10
24,2339,0.268057,-0.444916,1.372411,-5683.38,9782.57,1729.12
25,2439,0.227026,-0.481902,1.294701,-10258.40,-1970.45,-8320.90
26,2539,0.167761,-0.550803,1.319909,-14980.38,6664.57,-2440.88
27,2649,0.157009,-0.642878,1.364956,-9228.39,689.56,-1075.89
28,2749,0.138019,-0.747820,1.402165,-7383.38,-560.43,-1841.88
29,2849,0.127004,-0.842587,1.438700,-5200.38,1428.57,-68.88
30,2949,0.123282,-0.935773,1.455473,-3454.38,823.57,-1460.88
31,3059,0.131781,-1.020456,1.457608,-2527.38,2022.57,-3461.88
32,3159,0.143547,-1.095971,1.447576,-2299.38,3641.57,-3382.88
33,3259,0.128884,-1.180977,1.442968,-3470.37,3664.58,-815.87
34,3359,0.122939,-1.268174,1.439417,-1823.38,746.57,1564.12
35,3469,0.117646,-1.317005,1.408621,-1183.40,4837.55,-479.90
36,3569,0.148854,-1.365085,1.385392,2987.61,2675.56,-2707.89
37,3669,0.154469,-1.406355,1.377367,4314.61,2306.56,-166.89
38,3769,0.160067,-1.426896,1.377668,4649.63,1839.58,604.13
39,3879,0.160980,-1.454061,1.379664,4922.60,1848.55,560.10
40,3979,0.163751,-1.471255,1.386139,6441.62,1986.57,308.12
41,4079,0.173047,-1.472961,1.396514,8195.62,1918.57,39.12
42,4189,0.175693,-1.459762,1.410697,8557.61,1754.56,266.11
43,4289,0.182318,-1.439187,1.428118,9766.61,1450.56,598.11
44,4389,0.209721,-1.403901,1.445178,9669.61,2287.56,333.11
45,4489,0.212944,-1.330566,1.479601,8992.60,1726.55,1347.10
46,4589,0.203215,-1.269953,1.511991,4948.60,2389.55,-45.90
47,4699,0.218218,-1.221910,1.533627,3108.62,2667.57,346.12
48,4799,0.222383,-1.185652,1.548392,2556.61,1883.56,833.11
49,4899,0.219917,-1.150639,1.560118,2761.59,2148.54,1178.09
50,4999,0.220842,-1.122306,1.572558,2209.60,2736.55,-424.90
1,0,0.033583,-0.140070,1.094608,1926.61,2103.56,453.11
2,99,0.062623,-0.258507,1.176837,1965.60,2066.55,515.10
3,199,0.090219,-0.355132,1.245487,360.60,2588.55,-199.90
4,299,0.108511,-0.451674,1.303106,983.60,2666.55,-402.90
5,399,0.132025,-0.530548,1.352340,1773.61,2139.56,448.11
6,499,0.144138,-0.594368,1.395012,2038.60,2299.55,44.10
7,599,0.146506,-0.647682,1.432492,2152.61,2010.56,435.11
8,699,0.169503,-0.694591,1.462482,1868.61,2442.56,-91.89
9,799,0.182843,-0.738474,1.488248,2094.61,2905.56,304.11
10,899,0.194401,-0.771710,1.511010,1836.62,2147.57,1389.12
11,1009,0.190383,-0.812320,1.527630,1646.60,1486.55,2305.10
12,1109,0.192754,-0.845813,1.541445,4049.60,5147.55,-33.90
13,1209,0.190741,-0.865383,1.555642,3824.61,2961.56,-1009.89
14,1309,0.182676,-0.881377,1.570400,6041.62,2716.57,-374.88
15,1419,0.183640,-0.885889,1.581078,9552.62,153.57,-715.88
16,1519,0.185539,-0.875479,1.588139,10937.61,660.56,-1423.89
17,1619,0.186915,-0.840575,1.578376,11539.60,4036.55,923.10
18,1719,0.181530,-0.794629,1.573044,9822.60,3029.55,1644.10
19,1829,0.186602,-0.726021,1.549871,8110.61,3735.56,1689.11
20,1929,0.188770,-0.673545,1.538597,6238.59,2719.54,287.09
21,2029,0.190413,-0.622038,1.525609,6148.61,1336.56,-918.89
22,2139,0.192065,-0.560733,1.506530,4907.62,1329.57,316.12
23,2239,0.211835,-0.494691,1.510272,5076.59,1330.54,-322.91
24,2339,0.228273,-0.419273,1.514642,7996.62,3927.57,-1013.88
25,2439,0.235232,-0.290129,1.516874,8906.60,5472.55,-4737.90
26,2539,0.205735,-0.133005,1.494913,9091.60,14119.55,-6106.90
27,2649,0.166326,-0.171679,1.362372,-10246.39,3978.56,-2725.89
28,2749,0.132113,-0.279589,1.277307,-16281.40,4984.55,1728.10
29,2849,0.112811,-0.339561,1.217471,-16990.38,4240.57,-2506.88
30,2949,0.088036,-0.403758,1.242965,-15765.40,509.55,-3473.90
31,3059,0.072690,-0.491797,1.280272,-8745.40,-2170.45,-3821.90
32,3159,0.044650,-0.595396,1.331667,-10227.38,-58.43,-2308.88
33,3259,0.044583,-0.694551,1.382842,-4727.38,-563.43,-148.88
34,3359,0.023615,-0.795734,1.417240,-5163.39,1419.56,-1942.89
35,3469,0.026465,-0.875331,1.441626,-3334.39,2579.56,-1083.89
36,3569,0.011786,-0.955347,1.443715,-2787.38,162.57,-962.88
37,3669,0.034153,-1.027390,1.443915,-2732.40,-797.45,-812.90
38,3769,0.046097,-1.097104,1.431762,-3096.39,-390.44,-2791.89
39,3879,0.052369,-1.177765,1.418265,-3777.37,862.58,121.13
40,3979,-0.149577,-1.435513,1.609425,2575.61,-13191.44,-2249.89
41,4079,-0.108004,-1.458492,1.567154,2665.60,2818.55,-1316.90
42,4189,-0.065800,-1.478775,1.542649,5090.62,2518.57,-386.88
43,4289,-0.030824,-1.485377,1.524457,5791.63,1776.58,702.13
44,4389,0.004106,-1.486557,1.511667,5987.62,1465.57,975.12
45,4489,0.037257,-1.481830,1.505611,7056.62,1807.57,358.12
46,4589,0.064904,-1.469864,1.507330,8690.61,2389.56,-673.89
47,4699,0.086225,-1.451070,1.510824,10365.61,1418.56,573.11
48,4799,0.115022,-1.406420,1.514837,12978.60,1513.55,224.10
49,4899,0.133678,-1.330510,1.530040,11287.61,2781.56,-698.89
50,4999,0.141332,-1.244709,1.547724,7906.61,2743.56,-211.89
1,0,0.034994,-0.122821,1.095505,2018.62,2165.57,553.12
2,99,0.064408,-0.227000,1.175805,2012.61,2243.56,441.11
3,199,0.088550,-0.316064,1.244756,1844.62,2359.57,328.12
4,299,0.111213,-0.394149,1.303584,1966.61,2464.56,416.11
5,399,0.127236,-0.459002,1.351574,2327.61,2437.56,567.11
6,499,0.145396,-0.516214,1.395149,2185.61,2081.56,725.11
7,599,0.153690,-0.554866,1.433322,2048.59,3031.54,623.09
8,699,0.147722,-0.593908,1.458097,1740.61,2124.56,1091.11
9,799,0.161363,-0.633759,1.478168,1633.60,3739.55,710.10
10,899,0.170760,-0.671404,1.503778,4186.60,2743.55,-366.90
11,1009,0.170727,-0.692344,1.519377,6816.60,1694.55,186.10
12,1109,0.174929,-0.693754,1.533551,6283.61,-985.44,1812.11
13,1209,0.195787,-0.694330,1.541406,8094.61,1647.56,-52.89
14,1309,0.199178,-0.681325,1.540667,10028.61,437.56,-664.89
15,1419,0.216233,-0.642567,1.532550,8849.60,1370.55,667.10
16,1519,0.224357,-0.592117,1.525394,7784.59,3829.54,1630.09
17,1619,0.225934,-0.542681,1.509423,7502.58,843.53,68.08
18,1719,0.240770,-0.489013,1.494475,6311.61,1551.56,-810.89
19,1829,0.254754,-0.412598,1.481806,7984.61,2670.56,-870.89
20,1929,0.271548,-0.307068,1.476439,8070.62,3014.57,-3456.88
21,2029,0.277216,-0.181956,1.482516,7204.61,8981.56,-5828.89
22,2139,0.240524,-0.173901,1.370017,-5960.40,9065.55,-8076.90
23,2239,0.197288,-0.271095,1.274283,-14939.38,6279.57,2047.12
24,2339,0.155483,-0.324194,1.235536,-14371.40,10915.55,1627.10
25,2439,0.099039,-0.381064,1.241878,-11338.38,-631.43,-1564.88
26,2539,0.067559,-0.452073,1.284072,-9385.40,-1052.45,-3550.90
27,2649,0.040069,-0.543265,1.328672,-7870.39,-6403.44,-933.89
28,2749,0.034152,-0.632332,1.376560,-5744.38,1000.57,171.12
29,2849,0.026687,-0.705549,1.410326,-4635.39,1085.56,-874.89
30,2949,0.040191,-0.780198,1.434449,-3494.39,-1220.44,-1179.89
31,3059,0.032296,-0.858848,1.445945,-2825.39,51.56,-1915.89
32,3159,0.062226,-0.935789,1.455772,-1046.38,-1679.43,-1826.88
33,3259,0.060163,-1.007030,1.449421,-1787.39,-176.44,-944.89
34,3359,0.093145,-1.085932,1.463780,-4114.39,-4733.44,-217.89
35,3469,0.065552,-1.124434,1.377090,6130.62,5198.57,3376.12
36,3569,0.089267,-1.181477,1.398600,2654.63,-2005.42,1711.13
37,3669,0.099591,-1.226228,1.407307,6033.62,-218.43,135.12
38,3769,0.112688,-1.251413,1.429924,8344.61,2822.56,-344.89
39,3879,0.128159,-1.248797,1.447482,8480.61,1695.56,1291.11
40,3979,0.144405,-1.238608,1.467387,8622.62,1768.57,1327.12
41,4079,0.156511,-1.225735,1.483684,10983.62,1861.57,1577.12
42,4189,0.152189,-1.180114,1.503212,13412.62,2511.57,847.12
43,4289,0.156280,-1.092044,1.525671,9153.62,2068.57,2031.12
44,4389,0.162393,-1.027493,1.545383,2560.61,2472.56,116.11
45,4489,0.172350,-0.986999,1.555821,864.61,2023.56,-448.89
46,4589,0.164041,-0.956369,1.565115,1938.62,2062.57,253.12
47,4699,0.169356,-0.925536,1.577427,1597.60,2330.55,162.10
48,4799,0.174386,-0.905957,1.586098,1373.61,2411.56,58.11
49,4899,0.179504,-0.887410,1.590026,1822.61,2229.56,17.11
50,4999,0.184862,-0.874263,1.600396,1837.60,2245.55,35.10
1,0,0.030891,-0.121741,1.094040,2111.60,2101.55,461.10
2,99,0.059585,-0.223610,1.174377,2252.63,2363.58,80.13
3,199,0.084451,-0.306957,1.243890,1465.62,2110.57,477.12
4,299,0.109194,-0.385474,1.302153,1447.62,2114.57,526.12
5,399,0.125464,-0.451427,1.351218,1957.61,2346.56,128.11
6,499,0.134991,-0.502652,1.393564,2273.61,1346.56,986.11
7,599,0.165739,-0.548336,1.427196,1740.61,2189.56,519.11
8,699,0.188726,-0.589988,1.457706,1569.62,2463.57,-71.88
9,799,0.193066,-0.628431,1.483713,1491.60,2750.55,79.10
10,899,0.190787,-0.662170,1.509810,1671.62,1870.57,628.12
11,999,0.197638,-0.689914,1.524742,1457.61,2255.56,-358.89
12,1109,0.197584,-0.715053,1.540748,2561.61,2753.56,515.11
