sample_num,timestamp_ms,acc_x(g),acc_y(g),acc_z(g),gyro_x(LSB),gyro_y(LSB),gyro_z(LSB)
1,0,-0.000240,-0.001663,1.000476,8.25,-12.05,6.90
2,99,0.001020,-0.001501,1.000294,10.26,-8.04,19.91
3,199,-0.000343,-0.002206,1.000213,-25.74,24.96,-2.09
4,299,-0.002345,-0.003153,1.000784,3.25,-5.05,1.90
5,399,-0.028747,0.001334,0.934327,-5114.73,-2908.03,2703.92
6,499,-0.010759,0.001083,0.889686,-9565.74,-1333.04,4677.91
7,599,0.014291,-0.064353,0.977900,-3710.73,47.97,1169.92
8,699,0.027636,-0.107613,0.984913,-352.73,245.97,66.92
9,799,0.029055,-0.136218,0.975476,20.27,-51.03,41.92
10,899,0.030738,-0.160075,0.975528,17.27,-12.03,7.92
11,999,0.031490,-0.180792,0.973120,-12.74,12.96,-9.09
12,1109,0.033064,-0.198255,0.970468,-2.72,13.98,-7.07
13,1209,0.035005,-0.212843,0.967097,11.27,-5.03,8.92
14,1309,0.038615,-0.222935,0.963921,-27.73,25.97,-5.08
15,1419,0.038937,-0.238508,1.004177,14746.28,652.98,166.93
16,1519,0.079402,-0.142467,0.970940,12530.28,242.98,742.93
17,1619,0.060715,-0.087200,0.952721,-1366.73,2376.97,-221.08
18,1719,0.050307,-0.058534,0.898930,-2603.72,2890.98,-1538.07
19,1829,0.028659,-0.074066,0.914145,-131.73,44.97,617.92
20,1929,0.019598,-0.054932,0.931052,-66.72,1.98,340.93
21,2029,0.019074,-0.044875,0.941760,-17.72,-11.02,36.93
22,2139,0.014728,-0.038451,0.950862,1.26,-7.04,-2.09
23,2239,0.013853,-0.032167,0.957445,-2.73,5.97,53.92
24,2339,0.012451,-0.027136,0.964066,-1.72,-8.02,-39.07
25,2439,0.010051,-0.023007,0.969566,1.28,-10.02,3.93
26,2539,0.009219,-0.019204,0.973911,4.28,-0.02,-2.07
27,2649,0.007670,-0.016703,0.977421,1.28,-7.02,-3.07
28,2749,0.006756,-0.014322,0.980698,-8.72,-0.02,-9.07
29,2849,0.005411,-0.012682,0.983501,0.26,-4.04,-2.09
30,2949,0.004726,-0.011801,0.986818,7.28,7.98,8.93
31,3049,0.086797,-0.047619,1.034169,-7773.73,175.97,-1724.08
32,3159,0.070278,-0.057830,1.024978,-10389.74,511.96,-2471.09
33,3259,0.052997,-0.116406,1.059976,-1467.72,112.98,-255.07
34,3359,0.040523,-0.145798,1.040707,-1140.72,-88.02,-38.07
35,3469,0.034369,-0.168730,1.021692,-172.72,-8.02,-10.07
36,3569,0.029670,-0.191115,1.016186,-53.72,-9.02,6.93
37,3669,0.025163,-0.209191,1.007202,62.26,8.96,-10.09
38,3769,0.021607,-0.223566,0.996051,7.29,-2.01,-19.06
39,3879,0.017082,-0.239649,0.993768,-106.73,3.97,-10.08
40,3979,0.027006,-0.281847,1.057361,8565.27,236.97,-624.08
41,4079,0.056773,-0.282211,1.069906,16232.29,3176.99,-1176.06
42,4189,0.052577,-0.245991,1.198580,1681.28,84.98,-148.07
43,4289,0.046795,-0.178088,1.185071,-1605.71,217.99,-233.06
44,4389,0.026774,-0.167484,1.175236,-4315.72,-624.02,817.93
45,4489,0.018819,-0.164842,1.154114,72.28,-3.02,744.93
46,4589,0.014237,-0.133502,1.129624,-189.72,60.98,-287.07
47,4699,0.011221,-0.116182,1.109722,-16.72,-10.02,197.93
48,4799,0.007450,-0.099501,1.093904,-3.71,-2.01,29.94
49,4899,0.006129,-0.085395,1.079654,7.29,-8.01,33.94
50,4999,0.005172,-0.072252,1.067321,1.28,-11.02,59.93
51,5099,0.004615,-0.061081,1.057827,-5.72,-6.02,27.93
52,5209,0.004306,-0.051493,1.049025,-3.71,5.99,-6.06
53,5309,0.003640,-0.043417,1.041616,1.29,0.99,-9.06
54,5409,0.003056,-0.036991,1.035428,-2.72,0.98,-16.07
55,5519,0.002559,-0.032208,1.030279,5.27,16.97,-4.08
56,5619,0.001826,-0.027592,1.025975,1.28,10.98,-2.07
57,5719,0.001019,-0.023504,1.021932,-5.73,-0.03,-5.08
58,5819,0.034483,-0.016990,1.051857,-4011.71,438.99,785.94
59,5919,0.035187,-0.028133,1.016191,-9026.71,-874.01,13.94
60,6029,0.000172,-0.084352,1.049175,-10738.71,-1772.01,-2623.06
61,6129,0.007871,-0.118863,1.046614,-1700.72,-490.02,47.93
62,6239,0.009234,-0.147703,1.032865,-46.72,-13.02,-32.07
63,6339,0.008745,-0.172125,1.021325,-18.73,-3.03,-2.08
64,6439,0.008035,-0.192134,1.010784,-5.73,-33.03,-9.08
65,6539,0.007909,-0.208830,1.002116,-5.72,-7.02,-6.07
66,6639,0.007673,-0.222765,0.994236,-5.72,5.98,10.93
67,6749,0.007217,-0.235104,0.988656,-1.71,-13.01,1.94
68,6849,-0.008571,-0.237645,0.979133,12884.28,-632.02,-1258.07
69,6949,-0.010656,-0.184911,0.940533,16393.28,-897.02,-680.07
70,7049,-0.020448,-0.142723,0.928908,-129.72,860.98,-584.07
71,7159,-0.024744,-0.107156,0.950411,-4401.73,-1167.03,218.92
72,7259,-0.011055,-0.118984,0.970557,-1780.72,-157.02,1936.93
73,7359,-0.011687,-0.100967,0.968400,51.28,11.98,80.93
74,7459,-0.008177,-0.089462,0.976014,-25.72,9.98,21.93
75,7569,-0.007538,-0.074866,0.978971,-0.70,13.00,-0.05
76,7669,-0.005145,-0.064969,0.982199,6.28,-1.02,0.93
77,7769,-0.005236,-0.055494,0.984832,2.27,8.97,-1.08
78,7869,-0.004159,-0.048154,0.987052,13.29,-7.01,8.94
79,7979,-0.004104,-0.040872,0.988847,-2.73,1.97,-13.08
80,8079,-0.002959,-0.034865,0.990319,6.27,-0.03,-10.08
81,8179,-0.002993,-0.029100,0.991789,-1.71,3.99,5.94
82,8289,-0.002454,-0.024822,0.993057,1.29,-3.01,-0.06
83,8389,-0.002233,-0.020985,0.994282,-7.71,5.99,2.94
84,8489,-0.002266,-0.018290,0.994901,-2.72,-3.02,3.93
85,8589,0.002760,-0.020816,0.994366,-45.71,-10.01,77.94
86,8689,0.015236,-0.040358,1.025588,-7276.72,-544.02,903.93
87,8799,-0.002579,-0.081981,1.015872,-11304.72,940.98,-3173.07
88,8899,0.006046,-0.091377,1.001296,-1123.72,-262.02,59.93
89,8999,0.003343,-0.119158,0.986929,-701.73,-288.03,-65.08
90,9099,0.003206,-0.148375,0.985538,-53.73,60.97,-13.08
91,9209,0.004079,-0.172697,0.980457,4.28,-5.02,3.93
92,9309,0.003594,-0.193205,0.975624,5.28,-17.02,4.93
93,9409,0.003804,-0.210784,0.972048,2.29,-9.01,-6.06
94,9509,0.003122,-0.225634,0.968642,5.29,-12.01,4.94
95,9619,-0.008169,-0.234393,1.009051,9390.30,-343.00,-190.05
96,9719,-0.037432,-0.182512,0.939377,15231.28,492.98,-2232.07
97,9819,-0.004609,-0.155992,1.055074,1287.29,1746.99,-524.06
98,9919,-0.006738,-0.106697,1.018395,-1119.70,635.00,-475.05
99,10029,-0.016459,-0.091512,1.023473,-3580.71,-678.01,1590.94
100,10129,-0.023842,-0.092466,1.014879,-160.71,56.99,453.94
1,0,-0.000972,0.000151,0.998773,-0.71,3.99,1.94
2,99,0.001224,0.000023,0.998701,21.29,7.99,-10.06
3,199,-0.001451,-0.000397,0.999225,-3.69,5.01,-25.04
4,299,-0.002039,-0.001266,0.999305,4.32,2.02,12.97
5,399,-0.002009,-0.000980,0.999171,8.29,7.99,9.94
6,499,-0.000811,-0.001415,0.998838,2.31,3.01,8.96
7,599,-0.011384,0.023558,0.919892,-3325.69,715.01,-843.04
8,699,-0.006180,-0.000259,0.910485,-9149.71,147.99,-1478.06
9,799,0.000734,-0.060878,0.965844,-10032.69,-603.99,137.96
10,899,0.004523,-0.113064,1.001033,-1617.71,-252.01,96.94
11,999,0.004686,-0.147717,1.002911,-197.70,70.00,40.95
12,1109,0.004128,-0.171478,0.994564,10.30,48.00,24.95
13,1209,0.004443,-0.192096,0.988000,-7.68,12.02,5.97
14,1309,0.005131,-0.209639,0.982751,1.31,7.01,-2.04
15,1419,0.005770,-0.224404,0.977813,-13.69,9.01,12.96
16,1519,0.005655,-0.236479,0.973707,0.30,-9.00,-5.05
17,1619,-0.002189,-0.249360,0.997939,13360.30,-902.99,-84.04
18,1719,0.005920,-0.202943,0.962433,16153.30,-537.00,72.95
19,1829,-0.003061,-0.145745,0.879884,279.32,919.02,-224.03
20,1929,-0.007986,-0.127339,0.954225,-4144.69,-1111.99,876.96
21,2029,0.006321,-0.138592,0.967665,-1252.70,-180.00,1798.95
22,2139,0.007771,-0.112122,0.966912,-143.69,76.01,-218.04
23,2239,0.009498,-0.097790,0.972571,40.29,19.99,-35.06
24,2339,0.008640,-0.084014,0.977089,-13.69,-0.99,-56.04
25,2439,0.007160,-0.070473,0.979610,-4.70,-1.00,4.95
26,2539,0.006598,-0.060832,0.982833,-3.69,2.01,-31.04
27,2649,0.005479,-0.051757,0.985262,3.30,-10.00,18.95
28,2749,0.005023,-0.044886,0.987564,5.30,2.00,-2.05
29,2849,0.004031,-0.038167,0.989613,-4.69,0.01,-8.04
30,2949,0.003315,-0.032712,0.991299,2.30,1.00,5.95
31,3049,0.002890,-0.027837,0.992421,-9.70,6.00,-3.05
32,3159,0.002328,-0.023821,0.993558,4.32,-3.98,1.97
33,3259,0.002326,-0.020372,0.994525,-0.70,0.00,0.95
34,3359,0.001628,-0.017366,0.995089,5.29,5.99,2.94
35,3469,0.001786,-0.014647,0.994947,-6.70,9.00,8.95
36,3569,0.002158,-0.012537,0.996053,0.31,4.01,-3.04
37,3669,0.002529,-0.010340,0.996132,-9.70,-8.00,7.95
38,3769,-0.003454,0.014470,0.909243,-4171.70,-531.00,868.95
39,3869,-0.003340,0.014940,0.866607,-7944.70,-1164.00,1895.95
40,3979,-0.019264,-0.038089,0.912251,-11161.70,-1238.00,144.95
41,4079,-0.013574,-0.082176,0.935740,-2654.69,-64.99,73.96
42,4189,-0.013425,-0.115219,0.929065,-145.70,56.00,-28.05
43,4289,-0.009984,-0.145118,0.932692,-13.71,-37.01,-4.06
44,4389,-0.007937,-0.169213,0.934768,6.32,14.02,-1.03
45,4489,-0.005722,-0.190591,0.937394,12.32,9.02,-4.03
46,4589,-0.004517,-0.209185,0.939808,-6.71,4.99,8.94
47,4699,-0.002870,-0.224256,0.941586,-1.69,9.01,2.96
48,4799,0.000288,-0.216834,0.912738,13379.30,2032.00,190.95
49,4899,0.002624,-0.243301,0.987498,16878.30,-619.00,175.95
50,4999,0.007082,-0.191109,0.964141,-2089.70,-97.00,242.95
51,5099,-0.015697,-0.155993,0.918690,-1957.70,441.00,117.95
52,5209,0.006084,-0.152676,0.934073,-1514.69,-545.99,2573.96
53,5309,-0.000524,-0.139492,0.939403,122.31,-43.99,1207.96
54,5409,-0.002936,-0.113272,0.950012,-69.69,1.01,-161.04
55,5519,-0.002020,-0.094281,0.956961,9.31,6.01,-7.04
56,5619,-0.001956,-0.081306,0.964095,-0.68,5.02,-58.03
57,5719,-0.003604,-0.069087,0.969627,-13.69,-2.99,-17.04
58,5819,-0.003265,-0.058078,0.974440,4.31,-1.99,3.96
59,5929,-0.003106,-0.050350,0.978200,-3.69,2.01,0.96
60,6029,-0.007676,-0.043983,0.980775,11.30,3.00,-27.05
61,6129,-0.006672,-0.038809,0.983878,11.31,2.01,117.96
62,6239,-0.002449,-0.031958,0.985985,-10.69,14.01,-42.04
63,6339,-0.003181,-0.027983,0.988381,10.31,2.01,-17.04
64,6439,-0.002247,-0.024129,0.990069,-9.70,9.00,1.95
65,6539,-0.002716,-0.020212,0.991632,3.31,0.01,-30.04
66,6639,-0.003408,-0.018055,0.992741,3.30,4.00,18.95
67,6749,-0.001048,-0.018235,0.994690,-27.69,-19.99,16.96
68,6849,0.003576,-0.012089,0.960715,-7947.70,-613.00,1502.95
69,6949,0.008623,-0.027703,0.953974,-10959.69,497.01,-401.04
70,7049,-0.004664,-0.068404,0.993818,-1315.70,-213.00,255.95
71,7159,-0.003087,-0.102651,0.985590,-754.69,-167.99,-124.04
72,7259,-0.004034,-0.137127,0.983211,-59.70,11.00,-67.05
73,7359,-0.002606,-0.164160,0.979650,-10.69,8.01,6.96
74,7459,-0.001556,-0.186718,0.974243,16.31,-5.99,-12.04
75,7569,-0.000518,-0.206185,0.970563,-21.69,-3.99,11.96
76,7669,0.000384,-0.222603,0.967673,-5.68,2.02,-4.03
77,7769,-0.030637,-0.223888,0.992298,10378.31,-1686.99,-544.04
78,7869,-0.031060,-0.187059,0.957839,16317.30,2381.01,-667.04
79,7979,-0.023801,-0.121001,1.027829,3611.31,572.01,206.96
80,8079,-0.016936,-0.086916,0.978245,-2786.70,400.00,389.95
81,8179,-0.036497,-0.086179,0.986232,-2586.68,-408.98,2408.97
82,8289,-0.039684,-0.091045,1.003569,-91.68,-17.98,878.97
83,8389,-0.036350,-0.071231,1.002466,-44.68,22.02,-197.03
84,8489,-0.033461,-0.059205,1.000815,-0.68,-4.98,-11.03
85,8589,-0.027582,-0.050704,1.000528,-2.69,8.01,2.96
86,8689,-0.024232,-0.042104,1.000852,7.31,14.01,1.96
87,8799,-0.020141,-0.036352,1.001237,-9.71,-1.01,8.94
88,8899,-0.016406,-0.030272,1.000978,-3.69,6.01,-15.04
89,8999,-0.013763,-0.025800,1.000429,12.31,1.01,-8.04
90,9099,-0.011205,-0.021650,1.000145,-3.69,0.01,-14.04
91,9199,-0.009744,-0.018691,1.000215,2.31,5.01,-12.04
92,9309,-0.008229,-0.015388,1.000439,-1.70,0.00,-1.05
93,9409,-0.007031,-0.012910,1.000520,2.32,6.02,-3.03
94,9509,-0.005830,-0.010932,1.000625,-10.68,4.02,-7.03
95,9619,-0.004938,-0.009214,1.000568,-2.69,8.01,-1.04
96,9719,-0.003777,-0.007882,1.000483,-5.69,-4.99,-16.04
97,9819,-0.003101,-0.006366,1.000356,-0.70,-1.00,-1.05
98,9919,-0.002838,-0.005260,1.000028,0.30,-7.00,1.95
99,10019,-0.002468,-0.004722,1.000225,0.31,-10.99,-7.04
100,10129,-0.002117,-0.003991,0.999697,0.30,-3.00,3.95
1,0,0.000531,-0.000526,1.000659,2.32,7.02,-5.03
2,99,-0.000080,-0.000607,1.000689,5.32,-1.98,-9.03
3,199,-0.000179,-0.001775,1.001428,-0.69,10.01,6.96
4,299,0.000379,-0.001870,1.001269,-0.68,13.02,3.97
5,399,-0.000026,-0.002152,1.001518,-6.68,-2.98,-5.03
6,499,0.055989,-0.016784,1.030514,-2845.69,-38.99,-362.04
7,609,0.056306,-0.031034,1.012937,-9345.69,10.01,-304.04
8,709,0.054415,-0.083924,1.046373,-10548.69,-2615.99,-72.04
9,809,0.044311,-0.130785,1.067231,-2159.68,-346.98,-7.03
10,909,0.037316,-0.155621,1.042333,12.31,28.01,-13.04
11,1009,0.033421,-0.182444,1.036807,-122.69,-150.99,-43.04
12,1119,0.030220,-0.201672,1.023248,43.32,15.02,-16.03
13,1219,0.026877,-0.217852,1.010954,-5.68,8.02,-10.03
14,1319,0.022222,-0.232612,1.002389,7.31,-3.99,4.96
15,1429,0.020500,-0.243986,0.994304,6.32,-18.98,-8.03
16,1529,-0.007002,-0.223094,0.948027,12413.30,849.00,-192.05
17,1629,-0.003974,-0.210444,0.968055,18536.32,332.02,385.97
18,1729,-0.000303,-0.156058,0.963289,-2192.69,972.01,184.96
19,1839,-0.020381,-0.089852,0.867172,-2723.68,-864.98,105.97
20,1939,-0.007528,-0.089022,0.886071,-2167.69,-296.99,1949.96
21,2039,-0.002243,-0.087603,0.903454,-2.69,-179.99,1005.96
22,2149,0.001499,-0.072791,0.917625,55.31,12.01,97.96
23,2249,0.002647,-0.059908,0.930439,-7.66,29.04,-118.01
24,2349,0.002507,-0.049983,0.941203,6.33,9.03,-24.02
25,2449,0.001361,-0.042188,0.949840,1.32,17.02,-42.03
26,2549,0.000443,-0.036477,0.958133,-0.68,9.02,-47.03
27,2659,-0.000009,-0.031641,0.964468,0.31,-0.99,-4.04
28,2759,0.000176,-0.027293,0.969799,0.33,-4.97,8.98
29,2859,-0.000657,-0.023579,0.974476,-7.68,4.02,-5.03
30,2959,-0.001529,-0.020220,0.978689,9.32,7.02,5.97
31,3059,-0.001465,-0.017347,0.981593,-5.69,-4.99,0.96
32,3169,-0.002070,-0.014539,0.984995,-3.69,11.01,-0.04
33,3269,-0.001705,-0.012481,0.987154,-1.68,-1.98,3.97
34,3369,0.000327,-0.010403,0.988697,4.31,4.01,9.96
35,3479,0.000113,-0.008398,0.990374,-16.68,5.02,-10.03
36,3579,-0.000802,-0.006474,0.992056,-1.68,3.02,18.97
37,3679,-0.000792,-0.005004,0.992864,12.32,-2.98,12.97
38,3779,-0.000655,-0.004578,0.994209,3.31,-7.99,-2.04
39,3879,-0.000173,-0.004619,0.994950,-2.69,-0.99,-42.04
40,3989,0.015178,-0.021463,1.069334,-4092.68,854.02,1191.97
41,4089,0.031633,-0.014357,0.999040,-9175.70,-539.99,1982.96
42,4199,0.040346,-0.069107,1.034323,-10988.67,-1476.97,775.98
43,4299,0.037772,-0.116726,1.050414,-1720.69,66.01,76.96
44,4399,0.033241,-0.146710,1.044793,-49.69,184.01,27.96
45,4499,0.027632,-0.171903,1.032014,38.32,5.02,-17.03
46,4599,0.024787,-0.192274,1.018350,14.32,8.02,-2.03
47,4709,0.019970,-0.209772,1.008713,-0.68,1.02,2.97
48,4809,0.018073,-0.224352,1.000979,17.31,3.01,-7.04
49,4909,0.015746,-0.236635,0.993234,-5.68,-7.98,-3.03
50,5009,0.034148,-0.227649,0.968413,13196.33,1720.03,349.98
51,5109,0.013462,-0.259396,1.042878,15688.31,-1102.99,27.96
52,5219,0.025248,-0.225700,1.003158,-716.68,1224.02,86.97
53,5319,0.010254,-0.172523,0.974980,-1751.68,-1540.98,-127.03
54,5419,0.021277,-0.173538,0.985619,-201.67,-263.97,2393.98
55,5529,0.020247,-0.154624,0.985909,-126.66,-72.96,120.99
56,5629,0.016514,-0.128148,0.989213,41.33,-48.97,612.98
57,5729,0.014897,-0.110404,0.990117,23.32,-6.98,12.97
58,5829,0.011253,-0.094314,0.990941,-2.68,-4.98,28.97
59,5939,0.009400,-0.079887,0.991696,4.33,-4.97,42.98
60,6039,0.008630,-0.066618,0.993381,-1.68,9.02,1.97
61,6139,0.006933,-0.056254,0.994118,3.32,1.02,8.97
62,6249,0.006259,-0.047353,0.994763,7.33,-2.97,7.98
63,6349,0.005723,-0.040080,0.995988,3.32,-1.98,-13.03
64,6449,0.004535,-0.033807,0.996480,-10.67,0.03,-2.02
65,6549,0.004093,-0.028932,0.997320,5.33,-9.97,-7.02
66,6649,0.002654,-0.024642,0.997557,-4.68,-4.98,-4.03
67,6759,0.001981,-0.020776,0.997375,-18.69,0.01,-2.04
68,6859,-0.041127,-0.030381,0.992770,-7288.69,1227.01,403.96
69,6959,-0.021573,-0.042225,0.969447,-10582.69,357.01,-78.04
70,7059,-0.021908,-0.109769,1.040717,-2254.68,-147.98,294.97
71,7159,-0.020654,-0.128180,1.009689,-652.66,-114.96,-44.01
72,7269,-0.015670,-0.158295,1.007705,57.32,29.02,47.97
73,7369,-0.013045,-0.180689,0.999116,56.32,15.02,-4.03
74,7469,-0.011345,-0.198826,0.990972,-8.68,9.02,3.97
75,7579,-0.008710,-0.214059,0.986119,-5.68,-9.98,-4.03
76,7679,-0.008045,-0.226733,0.981427,18.31,7.01,1.96
77,7779,0.007059,-0.296466,1.076535,4374.32,379.02,-71.03
78,7879,0.041908,-0.285169,1.085087,13616.33,1147.03,-0.02
79,7989,0.045326,-0.238434,1.193759,1880.32,831.02,-361.03
80,8089,0.051106,-0.195175,1.186595,-383.68,677.02,306.97
81,8189,0.032563,-0.163092,1.119037,-1637.68,-969.98,614.97
82,8299,0.028081,-0.157154,1.092613,184.32,35.02,377.97
83,8399,0.022624,-0.132495,1.080790,-114.67,-66.97,-200.02
84,8499,0.018736,-0.113422,1.068049,-17.67,1.03,33.98
85,8599,0.015302,-0.095140,1.057934,-4.68,-12.98,36.97
86,8699,0.013684,-0.081230,1.049097,-4.68,6.02,-16.03
87,8809,0.010716,-0.068565,1.041404,7.33,-1.97,-9.02
88,8909,0.009786,-0.058385,1.035615,13.33,9.03,12.98
89,9009,0.007421,-0.049109,1.030236,-6.67,-4.97,-8.02
90,9109,0.006747,-0.041298,1.025573,4.32,-3.98,1.97
91,9209,0.004947,-0.034531,1.021481,4.31,1.01,-10.04
92,9319,0.003930,-0.029218,1.017893,-14.68,-1.98,0.97
93,9419,0.016030,0.004192,0.913201,-2760.67,-693.97,665.98
94,9519,0.011172,0.009721,0.882624,-7795.66,-279.96,805.99
95,9629,-0.016889,-0.016342,0.877178,-11073.67,439.03,631.98
96,9729,-0.006739,-0.052063,0.882070,-2567.67,-316.97,154.98
97,9829,-0.001132,-0.095939,0.904978,-266.67,29.03,26.98
98,9929,-0.002079,-0.128638,0.918426,-52.68,29.02,-3.03
99,10039,-0.001328,-0.154692,0.921654,23.33,9.03,-9.02
100,10139,-0.000763,-0.177388,0.925368,-37.67,-0.97,-3.02
1,0,-0.000220,-0.000984,1.000623,3.33,-1.97,9.98
2,99,-0.001651,-0.001637,1.000603,-10.67,-9.97,8.98
3,199,-0.001623,-0.003217,1.001557,8.35,-14.95,53.00
4,299,0.001386,-0.002070,1.001763,-10.65,7.05,-16.00
5,399,-0.000250,-0.001900,1.000236,8.35,6.05,-39.00
6,499,-0.003086,-0.004320,1.001300,2.35,-8.95,48.00
7,599,-0.064677,-0.012400,1.017640,-7841.65,-1046.95,1842.00
8,699,-0.049519,-0.030805,0.993956,-10741.66,140.04,627.99
9,799,-0.040680,-0.090815,1.033517,-1406.65,-208.95,26.00
10,899,-0.038479,-0.121920,1.008879,-1049.67,-75.97,-80.02
11,999,-0.030088,-0.154493,1.004820,-44.65,-2.95,6.00
12,1109,-0.023322,-0.179251,0.997432,26.34,4.04,-2.01
13,1209,-0.018249,-0.198592,0.990017,11.33,-7.97,0.98
14,1309,-0.014651,-0.215820,0.982470,-33.66,8.04,-8.01
15,1419,-0.011519,-0.230518,0.978398,-2.66,1.04,-11.01
16,1519,-0.013435,-0.256579,1.021794,9326.35,-726.95,-409.00
17,1619,0.010590,-0.259249,1.043281,16215.33,2230.03,-925.02
18,1719,0.005724,-0.177821,1.072587,1121.35,59.05,-481.00
19,1829,0.020302,-0.134169,1.076586,-483.66,991.04,218.99
20,1929,-0.002079,-0.133026,1.077366,-3571.67,-230.97,1183.98
21,2029,-0.012149,-0.134985,1.061148,52.35,10.05,1015.00
22,2139,-0.009648,-0.109806,1.048681,-81.65,-38.95,-210.00
23,2239,-0.009940,-0.095216,1.042313,-1.66,9.04,-91.01
24,2339,-0.010976,-0.079903,1.036497,0.34,-14.96,24.99
25,2439,-0.008157,-0.068278,1.030913,-4.66,1.04,8.99
26,2539,-0.006549,-0.056749,1.024464,-47.66,-2.96,39.99
27,2649,-0.005767,-0.048744,1.021546,-12.66,4.04,-22.01
28,2749,-0.004499,-0.041684,1.017912,1.34,8.04,-13.01
29,2849,-0.003805,-0.035957,1.015647,10.34,-2.96,2.99
30,2949,-0.002795,-0.030796,1.013612,-1.66,11.04,-13.01
31,3049,-0.030519,-0.063177,1.043486,-3579.66,-881.96,1269.99
32,3159,-0.007850,-0.072189,1.019220,-9938.66,274.04,1765.99
33,3259,-0.000135,-0.125588,1.066289,-9557.64,347.06,701.01
34,3359,0.002468,-0.167810,1.092857,-1124.66,-15.96,69.99
35,3469,0.000413,-0.184839,1.060820,-277.65,-45.95,-57.00
36,3569,0.000407,-0.203763,1.045271,-12.66,-5.96,-17.01
37,3669,0.000694,-0.219409,1.031285,2.34,-1.96,-5.01
38,3769,0.000920,-0.233221,1.019488,1.35,-2.95,-5.00
39,3879,0.001552,-0.244686,1.009241,3.36,3.06,2.01
40,3979,0.002198,-0.254505,1.000769,-3.66,-0.96,-9.01
41,4079,-0.009209,-0.261936,1.016054,12545.33,-1118.96,-294.01
42,4189,0.017715,-0.149325,0.945751,12280.33,561.04,200.99
43,4289,0.005079,-0.101231,0.925013,-639.66,943.04,-225.01
44,4389,0.011660,-0.081482,0.912531,-1920.66,-1117.96,-395.01
45,4489,0.013226,-0.089121,0.914849,-4.66,-143.96,1445.99
46,4589,0.010382,-0.074246,0.927311,-215.66,-5.96,1.99
47,4699,0.010528,-0.067059,0.938434,-6.65,16.05,-83.00
48,4799,0.007100,-0.055493,0.947505,-17.65,-1.95,-36.00
49,4899,0.006018,-0.048061,0.955490,-0.64,2.06,-22.99
50,4999,0.004346,-0.040150,0.961819,-2.66,7.04,-3.01
51,5099,0.004720,-0.033903,0.967217,-0.65,1.05,3.00
52,5209,0.004049,-0.028208,0.972446,-13.65,1.05,-0.00
53,5309,0.003461,-0.024246,0.976067,5.35,-3.95,-22.00
54,5409,0.003070,-0.019706,0.979932,-5.66,6.04,-2.01
55,5519,0.002775,-0.016818,0.982870,-1.65,-2.95,1.00
56,5619,0.003659,-0.014107,0.985678,24.34,1.04,14.99
57,5719,0.077286,-0.038408,1.003189,-7369.67,2166.03,-186.02
58,5819,0.061263,-0.062048,1.001082,-11066.65,-87.95,-1084.00
59,5929,0.043248,-0.123213,1.058031,-2172.65,-172.95,492.00
60,6029,0.034510,-0.144111,1.025615,-749.64,-190.94,-26.99
61,6129,0.031403,-0.171635,1.024245,-208.65,8.05,85.00
62,6239,0.025393,-0.191898,1.011527,-11.65,-3.95,7.00
63,6339,0.023123,-0.209599,1.002145,-14.65,-16.95,-4.00
64,6439,0.020076,-0.224552,0.995104,-9.66,10.04,-7.01
65,6539,0.018475,-0.237666,0.987489,5.34,4.04,-17.01
66,6639,0.015905,-0.287319,1.047447,952.35,-206.95,-121.00
67,6749,0.049500,-0.277999,1.053917,13768.35,1367.05,30.00
68,6849,0.061375,-0.157101,0.995238,7616.33,602.04,-693.01
69,6949,0.034407,-0.133402,1.039404,-2031.67,564.03,43.98
70,7049,0.027745,-0.100111,0.991691,-2175.65,497.05,178.00
71,7149,0.029737,-0.106311,0.985668,-242.65,9.05,1162.00
72,7259,0.028884,-0.087301,0.989668,-137.65,-39.95,-91.00
73,7359,0.024057,-0.076929,0.991072,6.34,8.04,-80.01
74,7459,0.019277,-0.064102,0.992979,-2.66,7.04,-16.01
75,7569,0.016514,-0.054646,0.994344,-6.65,-5.95,28.00
76,7669,0.014458,-0.046115,0.995834,2.34,1.04,8.99
77,7769,0.012895,-0.039229,0.996167,0.35,9.05,-11.00
78,7869,0.011162,-0.032478,0.997310,8.35,9.05,-16.00
79,7969,0.008738,-0.027601,0.997806,3.35,-4.95,-5.00
80,8079,0.006970,-0.023236,0.997861,-3.66,-9.96,-2.01
81,8179,0.022203,-0.036664,1.054743,-3191.67,1133.03,747.98
82,8289,0.032276,-0.031086,1.000719,-9438.66,338.04,636.99
83,8389,0.018207,-0.088142,1.045711,-10708.65,-1469.95,65.00
84,8489,0.025693,-0.130946,1.061175,-2171.65,-93.95,-101.00
85,8589,0.023415,-0.155592,1.040171,-232.65,-11.95,70.00
86,8689,0.021184,-0.179727,1.025833,-29.67,-6.97,12.98
87,8799,0.018776,-0.198411,1.015513,0.35,1.05,-9.00
88,8899,0.016711,-0.214713,1.006266,4.34,-3.96,7.99
89,8999,0.015047,-0.228442,0.997965,-8.67,5.03,-3.02
90,9099,0.013138,-0.239928,0.991789,-2.65,-14.95,0.00
91,9199,-0.014722,-0.232882,0.969364,12293.36,-446.94,-200.99
92,9309,-0.023610,-0.172603,0.916868,16673.34,-871.96,-169.01
93,9409,-0.011425,-0.163571,0.926995,-761.65,1088.05,240.00
94,9509,-0.037287,-0.097026,0.844507,-3317.66,-582.96,314.99
95,9619,-0.016972,-0.107112,0.876676,-1581.66,-165.96,2423.99
96,9719,-0.019113,-0.095398,0.890945,-203.66,-20.96,123.99
97,9819,-0.014342,-0.079911,0.905125,25.34,8.04,156.99
98,9919,-0.009773,-0.069640,0.918789,2.34,-11.96,-5.01
99,10029,-0.009899,-0.059280,0.930184,7.35,-10.95,8.00
100,10129,-0.006876,-0.050328,0.940254,-0.64,1.06,5.01
1,0,-0.000128,0.000335,0.998884,-6.65,3.05,-1.00
2,99,0.000405,0.000052,0.999125,8.34,1.04,-8.01
3,199,-0.001285,-0.000353,0.999110,7.34,3.04,-15.01
4,299,-0.000909,-0.000734,1.000141,-8.66,-6.96,29.99
5,399,0.000693,-0.000655,1.000048,10.36,-8.94,-9.99
6,499,0.000919,-0.001046,1.000792,2.35,-1.95,31.00
7,599,-0.018444,-0.015495,0.977456,-6270.66,-3081.96,2596.99
8,699,-0.010642,-0.027082,0.962930,-9296.65,466.05,1123.00
9,799,0.001484,-0.108561,1.079783,-6070.65,908.05,813.00
10,899,0.002415,-0.132847,1.071057,-373.66,-12.96,27.99
11,999,0.003500,-0.157300,1.046630,-197.65,66.05,21.00
12,1109,0.004038,-0.181783,1.035772,-98.65,-130.95,-0.00
13,1209,0.004440,-0.201367,1.025573,-1.65,22.05,-24.00
14,1309,0.004781,-0.217793,1.014578,14.34,-1.96,1.99
15,1419,0.005512,-0.231481,1.005379,-9.63,-0.93,-8.98
16,1519,0.000346,-0.282831,1.060713,921.36,-160.94,-120.99
17,1619,0.009285,-0.260579,1.042415,13601.33,-107.97,541.98
18,1719,0.025160,-0.157015,0.995056,12659.36,753.06,237.01
19,1829,0.006317,-0.118187,1.020353,-1984.65,363.05,216.00
20,1929,0.004930,-0.081136,0.968869,-2116.65,245.05,463.00
21,2029,0.016734,-0.097451,0.989579,-242.64,183.06,1138.01
22,2139,0.016733,-0.082846,0.991473,-121.65,-78.95,-17.00
23,2239,0.017355,-0.071824,0.991251,0.35,9.05,-100.00
24,2339,0.012830,-0.061924,0.992564,9.35,-10.95,-4.00
25,2439,0.012206,-0.051696,0.994156,-8.65,0.05,13.00
26,2539,0.010339,-0.044155,0.994649,4.36,2.06,-44.99
27,2649,0.008990,-0.037691,0.995635,0.35,-1.95,21.00
28,2749,0.008521,-0.031868,0.995869,2.34,-0.96,1.99
29,2849,0.006053,-0.027210,0.996984,2.34,5.04,-8.01
30,2949,0.005164,-0.023197,0.997528,1.34,-6.96,28.99
31,3049,0.025447,0.011508,0.898290,-2881.65,-752.95,568.00
32,3159,0.046587,0.019638,0.852042,-8440.66,-738.96,834.99
33,3259,0.018341,-0.012764,0.858325,-11164.65,-888.95,166.00
34,3359,0.017257,-0.052208,0.867894,-2416.67,-161.97,117.98
35,3469,0.015877,-0.090367,0.878446,-221.66,-36.96,-107.01
36,3569,0.011573,-0.122638,0.886773,42.35,12.05,10.00
37,3669,0.012658,-0.152302,0.897899,93.35,26.05,11.00
38,3769,0.010540,-0.175887,0.904865,14.35,3.05,-4.00
39,3879,0.009436,-0.196007,0.912251,-10.65,4.05,-3.00
40,3979,0.008497,-0.213384,0.918529,2.36,1.06,14.01
41,4079,-0.017001,-0.197337,0.879737,12104.35,478.05,-401.00
42,4189,-0.029886,-0.139551,0.833691,17585.35,-922.95,-114.00
43,4289,-0.012165,-0.140696,0.873304,-1390.66,907.04,404.99
44,4389,-0.037842,-0.075183,0.788543,-1873.66,187.04,442.99
45,4489,-0.028943,-0.078915,0.830534,-2045.66,-261.96,1851.99
46,4589,-0.031650,-0.074946,0.850205,-77.64,-39.94,392.01
47,4699,-0.024284,-0.064742,0.872987,-11.65,6.05,17.00
48,4799,-0.020219,-0.055080,0.890922,-11.65,10.05,-22.00
49,4899,-0.018120,-0.046337,0.906515,4.35,-2.95,9.00
50,4999,-0.013790,-0.039307,0.920832,-2.65,11.05,-13.00
51,5109,-0.013149,-0.033717,0.932671,0.35,-2.95,20.00
52,5209,-0.010627,-0.028270,0.942496,-2.66,0.04,29.99
53,5309,-0.009197,-0.024390,0.950958,-6.66,5.04,-17.01
54,5409,-0.008953,-0.020800,0.958882,4.33,-13.97,-7.02
55,5519,-0.010246,-0.017381,0.964666,-1.65,5.05,-1.00
56,5619,-0.008580,-0.014494,0.970058,11.35,3.05,28.00
57,5719,-0.038823,-0.037601,0.940584,-5890.64,-3491.94,2450.01
58,5819,-0.042649,-0.042759,0.934446,-9618.65,-15.95,335.00
59,5929,-0.040884,-0.116155,1.041179,-3403.66,318.04,92.99
60,6029,-0.035996,-0.136227,1.010338,-188.66,-0.96,-38.01
61,6129,-0.027428,-0.162772,1.005950,75.35,-19.95,21.00
62,6239,-0.023698,-0.184255,0.995994,-15.65,-10.95,1.00
63,6339,-0.019868,-0.202370,0.990077,-13.66,-10.96,-1.01
64,6439,-0.016815,-0.217419,0.984626,9.34,10.04,4.99
65,6539,-0.013724,-0.231127,0.978840,4.35,8.05,-15.00
66,6639,-0.003883,-0.272258,1.029128,746.35,121.05,-41.00
67,6749,0.031948,-0.270031,1.052792,13599.34,1021.04,-469.01
68,6849,0.025527,-0.154301,0.970497,7660.35,450.05,-530.00
69,6949,0.007507,-0.120768,1.000100,-2401.66,-533.96,564.99
70,7049,-0.010922,-0.083440,0.949494,-2552.65,-225.95,1143.00
71,7159,-0.004870,-0.095400,0.965456,-395.66,76.04,1519.99
72,7259,0.001208,-0.077294,0.970785,-90.65,9.05,-220.00
73,7359,0.003462,-0.067269,0.975607,-2.66,9.04,-72.01
74,7459,-0.000279,-0.056349,0.979908,-8.64,-2.94,-0.99
75,7569,0.001155,-0.048056,0.983142,0.35,8.05,-1.00
76,7669,-0.000739,-0.040458,0.985488,-2.65,7.05,2.00
77,7769,-0.000115,-0.034860,0.987446,5.34,-0.96,17.99
78,7869,-0.000207,-0.029094,0.989183,-13.66,7.04,-14.01
79,7969,-0.001329,-0.024908,0.990623,-1.65,0.05,-1.00
80,8079,-0.000506,-0.020800,0.992543,0.35,-6.95,-24.00
81,8179,-0.001711,-0.018297,0.993754,-3.63,4.07,-25.98
82,8289,0.019274,0.004522,0.933571,-6532.65,-1028.95,1261.00
83,8389,0.022829,-0.003310,0.911492,-9727.65,1443.05,-1374.00
84,8489,0.031288,-0.062757,0.999018,-7138.66,-508.96,35.99
85,8589,0.023593,-0.092706,1.017165,-423.66,-90.96,-46.01
86,8689,0.019303,-0.126018,1.015269,-127.66,39.04,24.99
87,8799,0.018753,-0.153179,1.006863,38.36,-2.94,-2.99
88,8899,0.015427,-0.176064,0.997119,2.34,-11.96,-3.01
89,8999,0.015109,-0.195975,0.989696,-9.66,-1.96,0.99
90,9099,0.013302,-0.213503,0.984980,-1.64,-6.94,6.01
91,9199,0.011948,-0.228091,0.980001,-27.65,-2.95,-13.00
92,9309,0.009332,-0.210058,0.968170,13211.35,-85.95,-306.00
93,9409,0.021190,-0.187864,0.986806,15918.35,-122.95,-135.00
94,9509,0.007501,-0.106121,0.881797,-413.66,1230.04,394.99
95,9619,0.021684,-0.073718,0.859465,-2545.65,-784.95,1259.00
96,9719,0.026562,-0.079372,0.875254,-554.64,-116.94,1696.01
97,9819,0.026003,-0.068028,0.894974,-133.66,22.04,-85.01
98,9919,0.025618,-0.059943,0.910106,3.34,1.04,30.99
99,10029,0.019744,-0.049463,0.924213,3.35,5.05,-33.00
100,10129,0.017405,-0.041983,0.935325,-7.65,5.05,18.00
1,0,-0.000384,-0.000398,0.999708,-7.66,-5.96,10.99
2,99,0.000150,-0.001468,1.000466,-7.66,4.04,1.99
3,199,0.001427,-0.001151,1.000982,-7.67,-5.97,-7.02
4,299,-0.000526,-0.001651,1.001257,-1.67,1.03,-19.02
5,399,-0.000447,-0.001966,1.001014,-6.67,8.03,5.98
6,499,-0.001149,-0.001647,1.000459,10.33,6.03,2.98
7,599,0.000580,-0.001193,1.000519,-5.65,10.05,3.00
8,699,-0.029664,0.006663,0.953951,-2763.66,212.04,247.99
9,799,-0.063410,0.009001,0.937440,-7332.66,39.04,209.99
10,899,-0.051536,-0.026346,0.937065,-10756.65,800.05,573.00
11,999,-0.052521,-0.057069,0.918692,-2270.67,-413.97,-268.02
12,1109,-0.042922,-0.096953,0.929900,-325.66,61.04,75.99
13,1209,-0.035696,-0.128383,0.931132,-283.66,31.04,11.99
14,1309,-0.030012,-0.156764,0.935219,-23.66,9.04,-10.01
15,1419,-0.024411,-0.180559,0.936916,-0.66,-2.96,2.99
16,1519,-0.020310,-0.200235,0.938433,-14.68,-4.98,-2.03
17,1619,-0.016531,-0.216905,0.940802,5.33,-5.97,-0.02
18,1719,0.001879,-0.239936,0.994286,11106.32,-340.98,279.97
19,1829,-0.021566,-0.248948,1.026949,13566.33,-319.97,15.98
20,1929,-0.014650,-0.213725,1.013752,-279.65,733.05,363.00
21,2029,-0.016206,-0.170235,0.980653,-1062.66,-457.96,64.99
22,2139,-0.025530,-0.164854,0.993004,-553.66,-207.96,1391.99
23,2239,-0.022781,-0.156326,1.003356,-49.67,-49.97,253.98
24,2339,-0.020829,-0.126701,1.002761,-42.67,-5.97,-102.02
25,2439,-0.018199,-0.106427,1.001835,20.33,-3.97,-6.02
26,2539,-0.014883,-0.091850,1.001725,7.32,-3.98,1.97
27,2649,-0.012998,-0.077738,1.001430,10.33,-1.97,0.98
28,2749,-0.010719,-0.067024,1.001325,8.32,-0.98,1.97
29,2849,-0.008617,-0.056837,1.000926,0.34,4.04,1.99
30,2949,-0.007288,-0.048782,1.001080,-0.67,4.03,0.98
31,3049,-0.006066,-0.041954,1.000534,2.33,1.03,5.98
32,3159,-0.005651,-0.035912,1.000253,3.33,3.03,-14.02
33,3259,-0.005883,-0.030960,1.000435,-5.66,-2.96,0.99
34,3359,-0.004488,-0.026127,0.999803,8.35,-1.95,12.00
35,3469,-0.039008,0.008321,0.904545,-6186.67,-1360.97,1726.98
36,3569,-0.024312,-0.017587,0.931260,-9000.67,541.04,1129.99
37,3669,-0.022643,-0.101644,1.019244,-8099.67,-43.97,590.98
38,3769,-0.025106,-0.128213,1.027949,-446.66,-15.96,4.99
39,3879,-0.017678,-0.156034,1.019271,-539.67,60.03,-2.02
40,3979,-0.015081,-0.178382,1.001018,-62.67,28.03,13.98
41,4079,-0.011189,-0.199484,0.994713,-63.68,-10.98,9.97
42,4189,-0.009566,-0.217218,0.987432,38.34,-10.96,-0.01
43,4289,-0.007655,-0.231414,0.980492,-19.67,-9.97,-2.02
44,4389,-0.006213,-0.251207,0.996950,144.33,-21.97,-29.02
45,4489,-0.009603,-0.252724,1.007515,13592.32,-384.98,168.97
46,4589,0.023459,-0.108902,0.890299,9097.32,-507.98,310.97
47,4699,0.020032,-0.078792,0.947056,-400.66,2321.04,148.99
48,4799,0.022631,-0.079071,0.935370,-471.65,-421.95,26.00
49,4899,0.021159,-0.094067,0.956802,315.34,9.04,1298.99
50,4999,0.017436,-0.073433,0.962220,-201.66,-2.96,177.99
51,5109,0.014967,-0.060911,0.969499,-7.68,-3.98,-9.03
52,5209,0.012832,-0.049938,0.973617,3.34,4.04,-7.01
53,5309,0.010230,-0.042845,0.977135,-1.66,-1.96,-6.01
54,5409,0.008677,-0.035040,0.980822,5.33,-3.97,11.98
55,5519,0.007687,-0.030255,0.982930,7.34,6.04,-7.01
56,5619,0.006937,-0.025144,0.985509,0.32,2.02,14.97
57,5719,0.005658,-0.020690,0.987665,-4.67,3.03,-19.02
58,5819,0.003821,-0.017544,0.989790,-4.66,3.04,5.99
59,5919,0.004054,-0.014614,0.991487,-5.66,9.04,-1.01
60,6029,0.002879,-0.011996,0.992545,5.35,-4.95,-5.00
61,6129,0.002264,-0.010026,0.993920,-10.65,5.05,6.00
62,6239,0.001742,-0.008828,0.995052,3.34,6.04,14.99
63,6339,-0.002511,0.022970,0.886151,-2300.65,101.05,16.00
64,6439,-0.005393,0.013836,0.894660,-7581.65,-248.95,292.00
65,6539,-0.002368,-0.022274,0.902002,-11001.66,834.04,637.99
66,6639,-0.005821,-0.053736,0.884128,-2005.66,-589.96,489.99
67,6749,0.001974,-0.095347,0.905977,-511.67,90.03,70.98
68,6849,0.000305,-0.124106,0.906311,-256.66,-76.96,-6.01
69,6949,-0.000437,-0.151847,0.917234,-173.66,-140.96,-15.01
70,7049,0.000179,-0.175537,0.923497,-16.66,0.04,-2.01
71,7159,0.001635,-0.195581,0.927795,5.35,2.05,-7.00
72,7259,0.001335,-0.211905,0.931376,1.34,-1.96,-9.01
73,7359,0.016278,-0.225524,0.940645,13269.35,1756.05,-178.00
74,7459,-0.004822,-0.244260,0.994849,13836.34,-167.96,176.99
75,7569,-0.007870,-0.149736,0.961839,-983.66,852.04,201.99
76,7669,0.013709,-0.146972,0.952970,-1886.65,717.05,641.00
77,7769,-0.010357,-0.141859,0.950613,-3341.67,-431.97,2174.98
78,7869,-0.014772,-0.141357,0.968496,60.34,50.04,792.99
79,7979,-0.015321,-0.113813,0.973533,41.34,6.04,4.99
80,8079,-0.011612,-0.097486,0.977797,19.36,8.06,24.01
81,8179,-0.010840,-0.082510,0.980505,-9.65,10.05,13.00
82,8289,-0.009140,-0.069560,0.982954,9.34,-1.96,-4.01
83,8389,-0.008245,-0.058645,0.985804,3.34,-0.96,6.99
84,8489,-0.005964,-0.049183,0.987934,-6.65,-0.95,-3.00
85,8589,-0.006370,-0.041599,0.989854,2.32,12.02,-25.03
86,8689,-0.005872,-0.035226,0.991340,13.34,-10.96,13.99
87,8799,-0.004863,-0.029754,0.992749,8.33,4.03,-7.02
88,8899,-0.004170,-0.025176,0.993398,2.33,14.03,-13.02
89,8999,-0.004533,-0.021193,0.994041,3.32,-1.98,0.97
90,9099,-0.004220,-0.017753,0.995503,4.33,-6.97,6.98
91,9199,-0.004209,-0.014846,0.995738,-4.66,0.04,-7.01
92,9309,-0.003889,-0.012834,0.996067,5.34,-8.96,2.99
93,9409,-0.001767,-0.011471,0.996566,-2.66,1.04,-0.01
94,9509,-0.020929,0.004208,0.926183,-2624.65,-1423.95,1913.00
95,9619,-0.028721,-0.019709,0.948718,-9904.66,-337.96,816.99
96,9719,-0.017143,-0.116046,1.068014,-8154.66,-62.96,700.99
97,9819,-0.012649,-0.148658,1.074713,-515.66,19.04,-64.01
98,9919,-0.010623,-0.170666,1.050854,-209.68,45.02,77.97
99,10029,-0.009158,-0.191221,1.038264,-10.66,0.04,2.99
100,10129,-0.007400,-0.208676,1.025585,7.31,2.01,-0.04
1,0,-0.000018,-0.000141,0.999726,6.34,5.04,3.99
2,99,0.000754,0.000013,1.000720,14.32,-0.98,-6.03
3,199,0.000841,-0.000057,1.000447,-2.69,-4.99,-5.04
4,299,0.000532,0.000231,1.000746,-13.68,-0.98,12.97
5,399,0.000965,-0.002563,1.000580,-33.67,9.03,34.98
6,499,0.019148,-0.004445,0.989287,-7131.69,2040.01,2224.96
7,599,0.037241,-0.038966,0.984339,-10778.68,-551.98,735.97
8,699,0.033138,-0.110258,1.066577,-3547.69,241.01,419.96
9,799,0.029943,-0.134566,1.039709,-457.68,-17.98,187.97
10,899,0.024682,-0.157131,1.023352,120.32,-89.98,-18.03
11,999,0.023727,-0.180926,1.010475,-53.67,65.03,40.98
12,1109,0.021925,-0.201334,1.000609,-9.68,10.02,-2.03
13,1209,0.020229,-0.217876,0.991949,0.32,-8.98,11.97
14,1309,0.018494,-0.231973,0.986638,8.32,-2.98,6.97
15,1419,0.005759,-0.280558,1.047163,8184.33,-989.97,-340.02
16,1519,0.036957,-0.274212,1.055067,14781.32,1656.02,-274.03
17,1619,0.046482,-0.233460,1.186553,3082.31,866.01,-670.04
18,1719,0.018269,-0.176335,1.156831,-1881.68,1166.02,127.97
19,1829,0.007307,-0.137044,1.127759,-1515.68,-1044.98,547.97
20,1929,0.009617,-0.144498,1.115938,83.32,-8.98,454.97
21,2029,0.009236,-0.119192,1.099921,-162.67,-17.97,-139.02
22,2139,0.005177,-0.102426,1.084622,7.32,4.02,-35.03
23,2239,0.004547,-0.086269,1.072258,-3.67,-5.97,21.98
24,2339,0.004341,-0.073800,1.061402,-2.68,-0.98,3.97
25,2439,0.002828,-0.061865,1.051880,0.31,-11.99,23.96
26,2539,0.003539,-0.052708,1.043970,-1.69,-0.99,4.96
27,2649,0.002257,-0.043863,1.037045,-10.68,4.02,-1.03
28,2749,0.002193,-0.037755,1.031306,1.31,12.01,14.96
29,2849,-0.034593,-0.000355,0.907738,-3077.68,-261.98,52.97
30,2949,0.001302,-0.019578,0.926540,-8714.70,-9.00,70.95
31,3049,-0.006639,-0.060728,0.936003,-11221.67,-1276.97,379.98
32,3159,0.005874,-0.112552,0.978836,-1871.69,36.01,-49.04
33,3259,0.006732,-0.144425,0.978861,-188.69,94.01,25.96
34,3359,0.007608,-0.170455,0.977638,-7.67,26.03,-4.02
35,3469,0.006668,-0.192361,0.975646,17.32,-3.98,0.97
36,3569,0.007004,-0.210505,0.971847,-14.68,19.02,-7.03
37,3669,0.006612,-0.225635,0.968361,-0.68,-0.98,-4.03
38,3769,0.006389,-0.238641,0.965655,2.32,8.02,-7.03
39,3869,-0.014253,-0.236550,0.956598,11655.32,-507.98,-27.03
40,3979,-0.014532,-0.167426,0.892064,15758.33,-1207.97,339.98
41,4079,0.004218,-0.127310,0.866232,-1017.67,1691.03,536.98
42,4189,0.017813,-0.104766,0.861011,-2611.66,-2277.96,273.99
43,4289,0.018052,-0.108877,0.868218,-395.68,-101.98,2103.97
44,4389,0.013568,-0.093016,0.893003,-63.68,17.02,-105.03
45,4489,0.012411,-0.079041,0.908357,-4.68,6.02,98.97
46,4589,0.012436,-0.067619,0.920932,-9.67,1.03,-70.02
47,4699,0.009435,-0.056849,0.933049,1.32,0.02,21.97
48,4799,0.008679,-0.049250,0.942597,-7.67,-5.97,26.98
49,4899,0.007377,-0.041088,0.951849,-9.67,13.03,-0.02
50,4999,0.006050,-0.035030,0.958907,-4.69,-2.99,5.96
51,5099,0.005069,-0.029112,0.964558,-0.69,-0.99,-20.04
52,5209,0.005590,-0.023971,0.970150,-2.66,-3.96,8.99
53,5309,0.007004,-0.019656,0.974847,-5.68,1.02,-32.03
54,5409,0.005184,-0.017234,0.978895,-4.69,-0.99,-10.04
55,5519,0.027349,-0.017262,0.961919,-6281.69,206.01,-626.04
56,5619,0.030259,-0.047206,0.965837,-11358.68,89.02,-759.03
57,5719,0.028174,-0.124110,1.065023,-2753.68,746.02,544.97
58,5819,0.021530,-0.143117,1.020498,-450.70,26.00,-108.05
59,5929,0.019692,-0.174306,1.024144,-112.68,18.02,-60.03
60,6029,0.015017,-0.194957,1.013436,-11.67,38.03,7.98
61,6129,0.012874,-0.212418,1.004115,-4.68,-11.98,-15.03
62,6239,0.011217,-0.227517,0.995918,-1.68,0.02,9.97
63,6339,0.011493,-0.240187,0.988840,-3.69,10.01,-2.04
64,6439,0.005319,-0.293418,1.062292,7919.32,81.02,-325.03
65,6539,0.036345,-0.290745,1.079626,14422.32,1993.02,-294.03
66,6639,0.039096,-0.245755,1.191279,2430.33,382.03,-396.02
67,6749,0.039201,-0.208502,1.150191,-775.68,-499.98,107.97
68,6849,0.021455,-0.157630,1.108876,-1753.68,-1329.98,237.97
69,6949,0.021936,-0.145790,1.087583,-85.66,66.04,1388.99
70,7049,0.017932,-0.137210,1.079152,128.34,42.04,776.99
71,7159,0.010060,-0.112943,1.066437,67.33,-16.97,761.98
72,7259,0.007983,-0.088892,1.054330,-8.69,-71.99,601.96
73,7359,0.006107,-0.076963,1.045393,-39.69,-88.99,53.96
74,7459,0.003653,-0.063162,1.036881,-20.68,-24.98,-11.03
75,7569,0.004204,-0.053737,1.031643,24.33,3.03,30.98
76,7669,0.004800,-0.045653,1.026860,-9.67,-5.97,2.98
77,7769,0.005068,-0.039185,1.022978,-8.68,-6.98,-8.03
78,7869,0.008263,-0.037110,1.019989,-41.66,-8.96,-135.01
79,7979,0.008196,-0.032033,1.017742,62.33,106.03,-279.02
80,8079,0.007498,-0.026399,1.014733,0.33,-21.97,81.98
81,8179,0.037647,-0.002110,0.952868,-6468.69,113.01,-3770.04
82,8289,0.055035,-0.005798,0.905080,-11882.66,-262.96,-4536.01
83,8389,0.035061,-0.073038,0.983478,-4522.67,821.03,-425.02
84,8489,0.032236,-0.113567,0.974238,-545.69,-86.99,-83.04
85,8589,0.028939,-0.146039,0.977956,-223.67,-79.97,-96.02
86,8689,0.025935,-0.170875,0.975587,53.33,2.03,-13.02
87,8799,0.022868,-0.191637,0.970497,-15.67,4.03,2.98
88,8899,0.020317,-0.209560,0.967800,-4.68,6.02,0.97
89,8999,0.018533,-0.224062,0.965617,-4.66,2.04,-21.01
90,9099,0.031354,-0.282422,1.046544,2768.33,-264.97,-343.02
91,9209,0.044943,-0.270009,1.069025,14114.33,496.03,-433.02
92,9309,0.043823,-0.153166,0.964885,7816.33,332.03,-347.02
93,9409,0.039941,-0.145219,1.035429,-1942.67,142.03,8.98
94,9509,0.030947,-0.106640,0.961487,-3990.68,651.02,1299.97
95,9619,0.026817,-0.121273,0.985667,-904.67,69.03,643.98
96,9719,0.026219,-0.098279,0.986719,-26.67,-10.97,-135.02
97,9819,0.020162,-0.084100,0.989956,-24.67,-0.97,-15.02
98,9919,0.017192,-0.070949,0.990767,2.33,-2.97,71.98
99,10029,0.013954,-0.060540,0.992464,-8.68,15.02,-42.03
100,10129,0.010615,-0.051948,0.992551,6.32,-12.98,7.97
1,0,0.000842,-0.000544,0.999323,-0.68,3.02,-6.03
2,99,0.000752,-0.000659,0.999534,-1.68,-0.98,-0.03
3,199,0.001719,-0.001233,0.999696,1.32,0.02,-6.03
4,299,0.001132,-0.000549,0.998717,3.32,6.02,-21.03
5,399,-0.000906,-0.001652,0.999825,-1.69,9.01,22.96
6,499,-0.002327,-0.003138,0.999522,-1.66,13.04,12.99
7,599,-0.048358,0.002208,0.942520,-5882.67,-1821.97,2718.98
8,699,-0.034568,-0.019486,0.951728,-9619.68,-170.98,1434.97
9,799,-0.013251,-0.093646,1.029941,-7236.67,162.03,763.98
10,899,-0.017270,-0.135441,1.051360,-428.68,142.02,147.97
11,999,-0.016931,-0.159889,1.033311,-453.67,-242.97,5.98
12,1109,-0.013696,-0.184149,1.023590,-76.66,-1.96,5.99
13,1209,-0.010597,-0.204183,1.014321,8.34,6.04,-7.01
14,1309,-0.008367,-0.220737,1.003714,18.34,9.04,0.99
15,1419,-0.005867,-0.235156,0.995485,-14.68,3.02,-13.03
16,1519,0.006348,-0.292767,1.072243,2633.33,142.03,-124.02
17,1619,0.004608,-0.276422,1.071515,12640.34,801.04,258.99
18,1719,0.008916,-0.129613,0.965390,11813.34,914.04,-324.01
19,1829,0.021440,-0.118222,1.038294,-2392.66,457.04,572.99
20,1929,0.012529,-0.095980,0.992341,-2124.68,-189.98,992.97
21,2029,0.018817,-0.106040,0.995211,-63.66,209.04,940.99
22,2139,0.019144,-0.088499,0.996736,-62.68,-34.98,-217.03
23,2239,0.016235,-0.073388,0.997867,-13.67,1.03,23.98
24,2339,0.013983,-0.061642,0.998022,12.34,6.04,18.99
25,2439,0.011501,-0.052446,0.998264,4.32,14.02,-8.03
26,2539,0.009392,-0.044153,0.998379,14.33,5.03,-2.02
27,2649,0.007507,-0.037012,0.998146,6.34,9.04,11.99
28,2749,0.006253,-0.030979,0.998406,-7.66,12.04,0.99
29,2849,0.004711,-0.025722,0.998225,-2.66,3.04,1.99
30,2949,0.002851,-0.021511,0.998766,-6.68,1.02,18.97
31,3049,0.003319,-0.018005,0.999116,6.31,-2.99,-10.04
32,3159,0.003151,-0.014896,0.998810,1.33,3.03,15.98
33,3259,0.003374,-0.012291,0.998842,-7.67,9.03,-2.02
34,3359,-0.009711,-0.034081,0.995592,-5646.68,-334.98,2270.97
35,3469,-0.009774,-0.039309,0.952656,-10250.66,-458.96,750.99
36,3569,-0.001350,-0.131094,1.082384,-5622.67,333.03,554.98
37,3669,-0.006805,-0.153960,1.073451,-247.66,-117.96,48.99
38,3769,-0.007634,-0.178999,1.063001,-419.66,-48.96,-124.01
39,3879,-0.005573,-0.199001,1.048901,-20.66,-7.96,-2.01
40,3979,-0.004078,-0.215618,1.034956,15.32,10.02,-11.03
41,4079,-0.002880,-0.228992,1.022224,-1.67,0.03,-2.02
42,4189,-0.003090,-0.240909,1.012519,2.32,3.02,9.97
43,4289,0.001530,-0.300422,1.090530,2388.33,14.03,-173.02
44,4389,0.026808,-0.274121,1.080961,13162.34,318.04,146.99
45,4489,0.023263,-0.176015,1.052814,4511.33,217.03,-483.02
46,4589,0.021824,-0.135692,1.064118,-1173.68,880.02,393.97
47,4699,0.011904,-0.113630,1.042800,-1032.67,-232.97,1063.98
48,4799,0.021031,-0.121446,1.034898,-408.66,77.04,971.99
49,4899,0.024102,-0.102821,1.030561,-115.67,-26.97,-28.02
50,4999,0.024186,-0.088034,1.025593,-8.67,-2.97,-37.02
51,5109,0.018031,-0.074915,1.022230,0.34,-2.96,-0.01
52,5209,0.016242,-0.063306,1.018750,-3.68,-0.98,9.97
53,5309,0.013000,-0.053751,1.016194,5.32,8.02,-9.03
54,5409,0.010629,-0.045207,1.013490,4.33,-7.97,27.98
55,5519,0.009474,-0.038146,1.011779,-3.65,0.05,-14.00
56,5619,0.006680,-0.032602,1.010397,-0.68,0.02,1.97
57,5719,0.006538,-0.027926,1.008966,2.32,0.02,5.97
58,5819,0.005392,-0.023897,1.007639,-7.69,7.01,-17.04
59,5919,0.004034,-0.020198,1.006073,1.33,6.03,-14.02
60,6029,-0.001314,0.005286,0.878563,-1256.67,0.03,228.98
61,6129,-0.004907,-0.011634,0.899819,-7805.68,-239.98,1439.97
62,6239,-0.017428,-0.039290,0.890566,-11326.67,-318.97,765.98
63,6339,-0.009467,-0.077190,0.906213,-2368.66,-502.96,647.99
64,6439,-0.006015,-0.113068,0.918871,-443.68,190.02,-14.03
65,6539,-0.003720,-0.142098,0.917876,25.34,29.04,-14.01
66,6639,-0.003565,-0.168258,0.921461,-13.67,-1.97,-8.02
67,6749,-0.002426,-0.191134,0.926083,-2.67,-1.97,-0.02
68,6849,-0.001769,-0.209920,0.929718,-6.67,4.03,-9.02
69,6949,-0.000827,-0.226107,0.932644,-2.67,5.03,1.98
70,7049,0.005249,-0.257610,0.999364,10007.34,-815.96,-102.01
71,7159,-0.017566,-0.220593,0.961795,13058.33,235.03,-780.02
72,7259,-0.022182,-0.162029,0.977817,-364.66,331.04,429.99
73,7359,-0.023030,-0.108532,0.918449,-1710.68,576.02,1135.97
74,7459,-0.040102,-0.105376,0.945532,-1269.68,-251.98,2070.97
75,7569,-0.037511,-0.117781,0.972507,5.32,-122.98,1477.97
76,7669,-0.027581,-0.098937,0.975112,-82.68,8.02,-176.03
77,7769,-0.024561,-0.082554,0.977564,-2.68,21.02,-77.03
78,7869,-0.021811,-0.069891,0.980984,1.32,-6.98,22.97
79,7979,-0.017588,-0.058633,0.983855,-6.68,10.02,2.97
80,8079,-0.015425,-0.049595,0.986241,2.34,-4.96,-5.01
81,8179,-0.012544,-0.041455,0.988195,-2.68,-4.98,16.97
82,8289,-0.011139,-0.034353,0.989307,-2.67,11.03,-21.02
83,8389,-0.009157,-0.028407,0.990765,1.33,-16.97,5.98
84,8489,-0.007417,-0.023482,0.991931,1.33,-0.97,1.98
85,8589,-0.006396,-0.019405,0.992848,-0.68,8.02,5.97
86,8689,-0.005767,-0.015006,0.993867,-4.67,2.03,-5.02
87,8799,-0.007264,0.011969,0.903582,-3499.67,-171.97,-529.02
88,8899,-0.013278,-0.017672,0.916031,-8891.67,261.04,-2490.01
89,8999,-0.021688,-0.082564,0.968470,-10127.70,-1119.00,-602.05
90,9099,-0.014242,-0.124831,0.994550,-2137.68,3.02,94.97
91,9209,-0.015109,-0.153965,0.983924,-54.68,-42.98,-7.03
92,9309,-0.013685,-0.178272,0.980476,-1.69,10.01,-6.04
93,9409,-0.010516,-0.198456,0.975550,-6.68,14.02,2.97
94,9509,-0.008609,-0.215191,0.970685,7.33,-4.97,-3.02
95,9619,-0.006421,-0.229380,0.966971,-0.68,-4.98,-4.03
96,9719,-0.004653,-0.241532,0.964546,2.31,0.01,7.96
97,9819,-0.022430,-0.254809,0.970798,11681.33,-329.97,-87.02
98,9919,-0.030253,-0.187432,0.905343,18181.34,-1366.96,115.99
99,10029,-0.013264,-0.161528,0.894273,77.33,1853.03,840.98
100,10129,-0.038099,-0.125153,0.917750,-3057.67,-508.97,725.98
1,0,-0.000842,-0.000874,1.000550,-0.67,6.03,-26.02
2,99,-0.000698,-0.001818,1.001841,2.30,-9.00,47.95
3,199,0.000230,-0.001394,1.001327,-10.69,7.01,-37.04
4,299,-0.000941,-0.000595,0.999864,11.29,-9.01,66.94
5,399,0.000902,-0.000867,0.999848,-1.69,1.01,-28.04
6,499,0.000272,-0.001154,1.000145,-8.70,-2.00,21.95
7,599,0.001512,-0.001452,0.999721,14.31,1.01,-1.04
8,699,-0.001187,-0.001394,0.999763,-0.68,6.02,-32.03
9,799,-0.000167,-0.001839,1.000074,6.33,-7.97,38.98
10,899,0.000133,-0.001705,1.000484,-0.68,-4.98,-26.03
11,999,0.000643,-0.002122,1.000522,6.31,5.01,30.96
12,1109,0.000802,-0.001396,1.000425,-4.71,5.99,-20.06
13,1209,0.001890,-0.001402,0.999940,11.31,-5.99,7.96
14,1309,0.003419,-0.026913,1.064036,-4232.68,-325.98,782.97
15,1419,0.000781,-0.045137,1.040387,-9340.68,-192.98,1548.97
16,1519,-0.011147,-0.083222,1.038870,-11076.69,-1482.99,300.96
17,1619,-0.013724,-0.123194,1.046077,-2758.69,19.01,-635.04
18,1719,-0.012196,-0.152043,1.025066,-269.68,-54.98,-85.03
19,1829,-0.012418,-0.176088,1.013873,3.30,42.00,3.95
20,1929,-0.010282,-0.196454,1.003863,0.30,5.00,9.95
21,2029,-0.008282,-0.215211,0.996143,6.31,6.01,-13.04
22,2139,-0.006638,-0.230257,0.989178,-6.69,5.01,-4.04
23,2239,-0.006668,-0.242516,0.987249,65.32,-23.98,-27.03
24,2339,0.027932,-0.270715,1.034389,13217.33,761.03,-282.02
25,2439,-0.003870,-0.227008,0.989149,13674.32,-726.98,-210.03
26,2539,-0.000709,-0.207637,0.989037,-1143.69,454.01,473.96
27,2649,0.003133,-0.166214,0.982223,-1469.68,-711.98,1037.97
28,2749,-0.009331,-0.149609,0.980770,-703.68,-134.98,1279.97
29,2849,-0.020328,-0.138588,0.979388,28.32,-62.98,114.97
30,2949,-0.025555,-0.109482,0.984623,-65.68,50.02,-22.03
31,3059,-0.017328,-0.091718,0.985465,24.31,6.01,1.96
32,3159,-0.018355,-0.078267,0.988231,7.31,1.01,-27.04
33,3259,-0.013166,-0.065588,0.990235,7.33,-0.97,27.98
34,3359,-0.012711,-0.056294,0.991480,-7.68,2.02,-14.03
35,3469,-0.010658,-0.047625,0.992905,-5.68,0.02,25.97
36,3569,-0.006661,-0.040202,0.993676,-5.68,12.02,-9.03
37,3669,-0.007256,-0.034277,0.995284,0.31,5.01,-24.04
38,3769,0.016208,-0.020048,0.963839,-6834.69,-2671.99,3042.96
39,3879,0.025092,-0.034742,0.938739,-10071.67,-677.97,975.98
40,3979,0.017300,-0.108133,1.031388,-3830.68,554.02,451.97
41,4079,0.014943,-0.130049,1.005257,-423.68,-101.98,-10.03
42,4189,0.007592,-0.164132,1.013349,293.31,-42.99,12.96
43,4289,0.007386,-0.185522,1.000251,20.31,-13.99,7.96
44,4389,0.006003,-0.204948,0.994739,18.31,0.01,2.96
45,4489,0.006458,-0.221039,0.988424,-16.68,6.02,-11.03
46,4589,0.006715,-0.234626,0.982140,11.30,-3.00,4.95
47,4699,0.001404,-0.287208,1.055370,7720.31,-271.99,-418.04
48,4799,0.027835,-0.280688,1.067023,14428.32,2097.02,-286.03
49,4899,0.018789,-0.164697,1.031720,5079.32,406.02,-784.03
50,4999,-0.004281,-0.110947,1.028317,-1783.68,324.02,191.97
51,5099,-0.006606,-0.082178,0.987668,-1989.69,204.01,648.96
52,5209,0.005005,-0.098246,0.999040,79.32,-55.98,1769.97
53,5309,0.005315,-0.078085,0.998067,-97.70,-34.00,177.95
54,5409,0.006715,-0.065434,0.997972,-11.69,-3.99,103.96
55,5519,0.006183,-0.054644,0.998991,2.30,-2.00,20.95
56,5619,0.005785,-0.046735,0.999069,3.30,15.00,-23.05
57,5719,0.004972,-0.038677,0.998788,0.31,-6.99,19.96
58,5819,0.005544,-0.033383,0.999061,4.31,5.01,-43.04
59,5919,0.003046,-0.028645,0.999330,3.31,-7.99,-5.04
60,6029,0.003064,-0.023209,0.999229,0.31,-2.99,11.96
61,6129,0.002823,-0.018551,0.999840,6.31,3.01,-4.04
62,6239,-0.013036,-0.005930,0.943065,-3524.68,-149.98,-479.03
63,6339,-0.014634,-0.031751,0.945032,-9568.70,-188.99,-1024.04
64,6439,-0.005463,-0.090247,0.996270,-10375.70,-582.00,21.95
65,6539,-0.002173,-0.139858,1.033542,-2261.69,-159.99,138.96
66,6639,-0.000437,-0.164633,1.020198,-91.68,18.02,-12.03
67,6749,-0.001709,-0.192979,1.017059,-50.69,60.01,0.96
68,6849,-0.000665,-0.210536,1.007286,23.32,-11.98,11.97
69,6949,-0.000439,-0.226284,1.000352,-0.71,-8.01,-0.06
70,7049,0.000780,-0.238900,0.992755,6.31,-0.99,-1.04
71,7159,0.002054,-0.249697,0.985181,-2.68,-14.98,13.97
72,7259,-0.007135,-0.267536,1.004927,12441.31,-712.99,49.96
73,7359,-0.012364,-0.189974,0.919722,17002.31,-1430.99,418.96
74,7459,0.003607,-0.178502,0.930116,-1152.69,1103.01,111.96
75,7569,-0.017497,-0.153956,0.964878,-3030.68,-1612.98,563.97
76,7669,-0.011980,-0.151475,0.969616,-1042.68,-266.98,1957.97
77,7769,-0.014175,-0.135854,0.973606,-249.69,-13.99,-244.04
78,7869,-0.010786,-0.109245,0.980257,69.31,-3.99,113.96
79,7979,-0.008510,-0.094593,0.983951,-6.69,8.01,11.96
80,8079,-0.008991,-0.079136,0.986267,1.32,2.02,-8.03
81,8179,-0.007551,-0.066784,0.988327,2.33,-8.97,1.98
82,8289,-0.007481,-0.055663,0.990005,1.31,1.01,8.96
83,8389,-0.006030,-0.047181,0.991340,2.32,-5.98,-8.03
84,8489,-0.005510,-0.040483,0.992566,4.32,-2.98,4.97
85,8589,-0.003439,-0.034809,0.993626,-2.69,1.01,8.96
86,8689,-0.003528,-0.029784,0.994766,-5.68,1.02,0.97
87,8799,-0.002248,-0.024707,0.995752,-8.69,12.01,-8.04
88,8899,-0.034724,0.004327,0.899893,-5302.68,-2251.98,1861.97
89,8999,-0.024224,-0.025174,0.930821,-9688.68,720.02,718.97
90,9099,-0.008085,-0.113624,1.046099,-8083.70,348.00,558.95
91,9199,-0.007843,-0.150426,1.058869,-356.67,23.03,-8.02
92,9309,-0.009944,-0.177259,1.048720,-609.67,-18.97,-58.02
93,9409,-0.007885,-0.198108,1.035315,-45.69,-15.99,1.96
94,9509,-0.004725,-0.214969,1.022566,-6.69,10.01,-0.04
95,9619,-0.001343,-0.229685,1.011088,-11.67,-8.97,-14.02
96,9719,-0.001911,-0.241938,1.001588,-1.68,12.02,10.97
97,9819,0.006303,-0.303512,1.088050,3554.31,-106.99,-267.04
98,9919,0.033281,-0.274131,1.072389,13419.31,212.01,130.96
99,10029,0.041051,-0.142167,0.979994,10188.32,436.02,-686.03
100,10129,0.026671,-0.101849,0.986749,-3965.69,876.01,623.96
1,0,-0.000385,0.000335,0.999909,11.33,4.03,9.98
2,99,-0.000565,-0.000077,1.000161,-4.67,-10.97,6.98
3,199,0.000435,-0.002166,0.999661,2.32,-10.98,21.97
4,299,0.001120,-0.002459,0.999657,-17.68,10.02,-7.03
5,399,0.001483,-0.002909,0.999453,-1.68,16.02,4.97
6,499,0.001498,-0.005306,0.996514,-50.68,-7.98,22.97
7,599,-0.023153,-0.000550,1.001834,-7042.69,477.01,2092.96
8,699,-0.036380,-0.023314,0.980484,-10930.69,-1150.99,1214.96
9,799,-0.023160,-0.110449,1.083588,-3560.68,742.02,919.97
10,899,-0.019228,-0.142180,1.038476,-1017.68,-41.98,-207.03
11,999,-0.010906,-0.169884,1.031734,-223.68,-40.98,-13.03
12,1109,-0.009728,-0.195208,1.022891,106.32,-74.98,-42.03
13,1209,-0.006328,-0.213712,1.009479,11.34,3.04,3.99
14,1309,-0.003951,-0.230723,1.000696,18.32,-4.98,2.97
15,1419,-0.000648,-0.244687,0.992902,2.32,6.02,3.97
16,1519,-0.008315,-0.290706,1.058658,8826.32,-905.98,-487.03
17,1619,0.018347,-0.296497,1.093622,13087.34,809.04,392.99
18,1719,0.044580,-0.188590,1.030781,8650.32,779.02,-253.03
19,1829,0.037051,-0.159198,1.070018,-1722.68,39.02,17.97
20,1929,0.025963,-0.124418,1.031446,-2792.67,453.03,748.98
21,2029,0.020092,-0.128345,1.023672,-550.66,73.04,1526.99
22,2139,0.020337,-0.104419,1.021037,-99.67,1.03,-16.02
23,2239,0.017836,-0.088953,1.018229,-24.67,-1.97,-22.02
24,2339,0.013164,-0.075001,1.015550,2.32,3.02,7.97
25,2439,0.011665,-0.065137,1.013548,9.31,-2.99,34.96
26,2539,0.008670,-0.055142,1.011498,5.33,-4.97,7.98
27,2649,0.008523,-0.047232,1.009901,-1.69,-3.99,4.96
28,2749,0.006750,-0.040380,1.008746,5.32,-6.98,-17.03
29,2849,0.006598,-0.034593,1.006940,-1.68,6.02,-7.03
30,2949,0.004894,-0.029619,1.005826,-4.68,3.02,-14.03
31,3049,0.004361,-0.024951,1.004769,-9.69,2.01,4.96
32,3159,0.004182,-0.021405,1.004695,-7.68,5.02,-2.03
33,3259,0.046145,-0.031281,1.040795,-3653.68,-70.98,-191.03
34,3359,0.070131,-0.026493,0.985567,-8766.68,-343.98,152.97
35,3469,0.056462,-0.064811,0.995240,-11379.68,-237.98,833.97
36,3569,0.045282,-0.100476,0.996430,-2752.68,-9.98,115.97
37,3669,0.035505,-0.133190,0.988598,-166.68,29.02,-51.03
38,3769,0.030893,-0.162591,0.983790,86.31,18.01,-38.04
39,3879,0.026076,-0.185768,0.977012,-19.68,5.02,-10.03
40,3979,0.022860,-0.205725,0.972806,-5.67,6.03,-5.02
41,4079,0.019724,-0.222798,0.969195,4.33,4.03,-7.02
42,4189,0.017131,-0.236706,0.966382,-0.68,-2.98,-13.03
43,4289,0.031663,-0.221099,0.926674,12765.31,1924.01,370.96
44,4389,0.014682,-0.248098,1.000588,15658.31,-1290.99,-252.04
45,4489,0.014915,-0.196028,0.956995,-1150.68,268.02,348.97
46,4589,0.014050,-0.164623,0.949200,-624.68,-297.98,-183.03
47,4699,0.018425,-0.160561,0.955777,-506.67,-47.97,2119.98
48,4799,0.014928,-0.145590,0.964315,-63.68,-43.98,-128.03
49,4899,0.014904,-0.121293,0.969851,32.31,-7.99,183.96
50,4999,0.014023,-0.104486,0.974520,8.32,1.02,11.97
51,5109,0.012267,-0.087655,0.978415,0.32,-3.98,10.97
52,5209,0.010280,-0.074868,0.981617,0.31,-0.99,-22.04
53,5309,0.008554,-0.063523,0.984008,-0.68,2.02,6.97
54,5409,0.007912,-0.053788,0.985803,-9.68,8.02,-12.03
55,5519,0.006762,-0.045440,0.988336,-6.66,8.04,12.99
56,5619,0.005674,-0.038509,0.989811,-1.69,4.01,0.96
57,5719,0.004896,-0.032453,0.991102,-9.68,11.02,-3.03
58,5819,0.004252,-0.027251,0.992473,-9.69,1.01,-0.04
59,5919,0.003798,-0.022847,0.993786,2.34,0.04,0.99
60,6029,0.002934,-0.019250,0.994425,-2.70,6.00,8.95
61,6129,0.001066,-0.020533,0.988999,-5407.68,106.02,-114.03
62,6239,0.004109,-0.028288,0.967780,-9907.69,767.01,-785.04
63,6339,0.009700,-0.120097,1.086193,-7992.69,861.01,283.96
64,6439,0.013023,-0.160708,1.091136,-288.69,-85.99,-76.04
65,6539,0.013853,-0.182044,1.076184,-618.68,21.02,-43.03
66,6639,0.012653,-0.200435,1.053019,-26.68,2.02,27.97
67,6749,0.011982,-0.216874,1.037120,-13.68,2.02,-20.03
68,6849,0.010770,-0.231433,1.023862,-6.69,6.01,5.96
69,6949,0.011058,-0.243478,1.012812,2.31,4.01,2.96
70,7049,0.010553,-0.253735,1.002870,-5.69,1.01,1.96
71,7149,-0.007711,-0.236104,0.965215,11475.32,-308.98,-389.03
72,7259,0.001209,-0.105066,0.834495,15454.33,-1040.97,-235.02
73,7359,0.000075,-0.077418,0.834254,-2089.68,281.02,346.97
74,7459,-0.016416,-0.034105,0.807517,-207.69,568.01,150.96
75,7569,-0.012306,-0.042039,0.827015,-261.68,-35.98,672.97
76,7669,-0.009398,-0.037450,0.855673,-163.68,-6.98,-53.03
77,7769,-0.008025,-0.035581,0.874960,8.34,7.04,-44.01
78,7869,-0.005796,-0.029872,0.893442,-5.69,8.01,-48.04
79,7979,-0.006886,-0.026449,0.909096,-3.68,3.02,21.97
80,8079,-0.005579,-0.022238,0.923007,-4.68,3.02,22.97
81,8179,-0.005383,-0.018824,0.934574,-0.68,-7.98,13.97
82,8289,-0.004631,-0.015410,0.944645,1.32,16.02,-13.03
83,8389,-0.004523,-0.012892,0.953772,1.31,-12.99,1.96
84,8489,-0.003827,-0.010642,0.960542,5.31,-2.99,14.96
85,8589,-0.004114,-0.012520,0.964740,-60.68,11.02,37.97
86,8689,0.035358,-0.014867,0.952396,-7408.69,1137.01,772.96
87,8799,0.026391,-0.041545,0.957119,-10485.70,142.00,-49.05
88,8899,0.006575,-0.098589,1.011086,-1913.67,-344.97,179.98
89,8999,0.004618,-0.125233,0.982031,-922.68,-23.98,-109.03
90,9099,0.005243,-0.156028,0.984635,-323.69,-39.99,10.96
91,9209,0.004182,-0.180922,0.981447,-1.68,10.02,-29.03
92,9309,0.004744,-0.201624,0.976338,7.32,9.02,0.97
93,9409,0.004417,-0.219185,0.972014,-11.68,-2.98,-6.03
94,9509,0.004176,-0.233103,0.969383,-10.67,9.03,-0.02
95,9619,-0.020456,-0.259272,1.009022,9549.32,-1641.98,-863.03
96,9719,0.010298,-0.259854,1.029367,15944.33,1688.03,-712.02
97,9819,0.015198,-0.208676,1.115343,3262.31,164.01,-142.04
98,9919,0.013522,-0.168434,1.079603,-1960.67,-137.97,199.98
99,10029,0.011622,-0.143731,1.052026,-624.67,338.03,412.98
100,10129,0.014492,-0.137877,1.033016,-14.69,110.01,360.96
1,0,0.000329,0.000811,1.000952,-4.67,-6.97,-0.02
2,99,0.000774,0.000914,0.999803,0.31,4.01,-16.04
3,199,0.000181,0.000397,0.999265,3.32,3.02,-5.03
4,299,-0.000158,0.000544,0.999522,-1.69,1.01,-4.04
5,399,-0.000006,0.001438,0.999905,2.32,2.02,-14.03
6,499,-0.035217,-0.019720,0.999114,-2437.68,-295.98,1525.97
7,599,-0.006479,-0.024924,0.969108,-8653.68,-502.98,1206.97
8,699,-0.026455,-0.058919,0.967791,-10852.70,-361.00,510.95
9,799,-0.018679,-0.092080,0.968613,-2703.68,-342.98,314.97
10,899,-0.003591,-0.142973,1.001409,-365.70,543.00,45.95
11,999,-0.000581,-0.168599,0.993910,1.32,31.02,-0.03
12,1109,0.000567,-0.189740,0.987481,-1.70,-21.00,15.95
13,1209,0.001269,-0.208350,0.982346,11.32,2.02,0.97
14,1309,0.001774,-0.224371,0.977799,-5.68,-0.98,2.97
15,1419,0.001965,-0.237585,0.973768,-3.69,-3.99,-1.04
16,1519,-0.021127,-0.214577,0.925628,12080.31,-332.99,-535.04
17,1619,-0.023671,-0.215674,0.957603,17560.32,-298.98,346.97
18,1719,-0.024589,-0.177862,0.920805,355.31,161.01,293.96
19,1829,-0.039669,-0.137463,0.933874,-352.69,208.01,251.96
20,1929,-0.036741,-0.135516,0.948151,-912.69,-133.99,2217.96
21,2029,-0.036229,-0.122910,0.951424,10.32,-48.98,114.97
22,2139,-0.035574,-0.097511,0.960139,-11.69,-5.99,42.96
23,2239,-0.029305,-0.081379,0.967070,23.30,-5.00,87.95
24,2339,-0.023683,-0.071987,0.972157,11.32,7.02,16.97
25,2439,-0.019051,-0.063601,0.976370,4.31,9.01,-3.04
26,2539,-0.017164,-0.056253,0.980116,5.31,1.01,-14.04
27,2649,-0.013016,-0.048085,0.983044,-14.69,12.01,-17.04
28,2749,-0.013207,-0.041252,0.985184,-13.71,1.99,-6.06
29,2849,-0.010659,-0.034913,0.987022,-5.69,2.01,6.96
30,2949,-0.009481,-0.028756,0.989555,0.31,5.01,-5.04
31,3049,0.020780,-0.054357,1.039993,-1755.68,764.02,-42.03
32,3159,0.001366,-0.070570,1.035972,-9069.69,380.01,-1209.04
33,3259,-0.008984,-0.113593,1.053611,-11022.69,-1729.99,-348.04
34,3359,0.006884,-0.152579,1.068256,-2587.69,-80.99,137.96
35,3469,0.006565,-0.174384,1.048899,-220.69,-28.99,35.96
36,3569,0.006806,-0.196140,1.035101,11.32,24.02,-13.03
37,3669,0.007561,-0.214267,1.022768,-16.70,8.00,-9.05
38,3769,0.007397,-0.229125,1.010198,1.32,8.02,4.97
39,3879,0.006946,-0.241718,1.000538,2.30,-7.00,-0.05
40,3979,0.006874,-0.252569,0.993646,5.32,1.02,1.97
41,4079,-0.016497,-0.237146,0.948567,11903.31,77.01,-769.04
42,4189,-0.028342,-0.177179,0.895363,18297.32,-1286.98,159.97
43,4289,-0.014441,-0.124688,0.826152,-1137.69,851.01,394.96
44,4389,-0.027419,-0.097265,0.865139,-410.69,-234.99,227.96
45,4489,-0.029697,-0.096861,0.872203,-691.68,-244.98,1888.97
46,4589,-0.031633,-0.094247,0.900180,-117.68,-42.98,-292.03
47,4699,-0.025533,-0.079061,0.913670,69.32,-2.98,113.97
48,4799,-0.020184,-0.069779,0.927664,5.32,10.02,10.97
49,4899,-0.017285,-0.058904,0.939375,-8.70,-3.00,-7.05
50,4999,-0.013100,-0.050083,0.948029,-8.70,-4.00,-9.05
51,5109,-0.012564,-0.042291,0.956045,-5.68,-3.98,-11.03
52,5209,-0.010259,-0.035942,0.962455,2.31,3.01,12.96
53,5309,-0.008996,-0.030308,0.968599,-2.70,1.00,-2.05
54,5409,-0.007647,-0.025556,0.973200,5.32,-0.98,9.97
55,5519,-0.007232,-0.021278,0.977348,-12.68,-14.98,1.97
56,5619,-0.005837,-0.018155,0.980801,3.30,7.00,0.95
57,5719,-0.025415,-0.044083,0.972273,-6555.69,-3208.99,2163.96
58,5819,-0.046781,-0.076193,0.987474,-9664.69,484.01,92.96
59,5929,-0.031726,-0.151020,1.088614,-4973.69,675.01,453.96
60,6029,-0.030666,-0.167199,1.056408,-264.68,-33.98,93.97
61,6129,-0.024858,-0.189630,1.034067,24.32,21.02,-0.03
62,6239,-0.020104,-0.207799,1.021066,-18.68,21.02,15.97
63,6339,-0.016082,-0.223353,1.010399,1.32,11.02,5.97
64,6439,-0.012883,-0.237123,1.001368,-2.69,-1.99,1.96
65,6539,-0.010859,-0.248388,0.993729,7.31,-1.99,-5.04
66,6639,-0.010732,-0.282994,1.030138,1070.32,253.02,-18.03
67,6749,0.030923,-0.266486,1.026515,13987.33,1292.03,191.98
68,6849,0.033901,-0.179413,1.027335,5813.32,621.02,-609.03
69,6949,0.017097,-0.129224,1.035137,-38.69,1184.01,174.96
70,7049,0.020043,-0.112637,0.994197,-1576.69,-915.99,389.96
71,7159,0.028626,-0.117801,0.999041,43.30,-47.00,1223.95
72,7259,0.028653,-0.093992,0.995743,-130.70,-12.00,34.95
73,7359,0.026295,-0.081042,0.995759,13.32,7.02,19.97
74,7459,0.021417,-0.067764,0.997384,-3.69,6.01,4.96
75,7569,0.019705,-0.057412,0.997868,7.30,7.00,0.95
76,7669,0.015576,-0.047807,0.998096,9.30,11.00,-22.05
77,7769,0.013551,-0.040649,0.998291,-4.68,1.02,18.97
78,7869,0.011426,-0.033521,0.998749,-1.68,-1.98,-10.03
79,7969,0.009638,-0.028452,0.998442,4.31,-3.99,16.96
80,8079,0.007972,-0.023703,0.999061,-10.69,4.01,-20.04
81,8179,0.007178,-0.019667,0.999330,0.30,6.00,2.95
82,8289,0.006083,-0.016108,0.999265,-7.69,-6.99,8.96
83,8389,0.005335,-0.013467,0.999522,-5.68,3.02,6.97
84,8489,-0.004768,-0.008513,0.976102,-3338.69,-811.99,358.96
85,8589,-0.003248,-0.017155,0.953466,-7932.70,181.00,-361.05
86,8689,-0.006350,-0.048617,0.949350,-11137.70,250.01,97.96
87,8799,0.003519,-0.078197,0.942848,-2735.69,-448.99,102.96
88,8899,0.006396,-0.118465,0.956457,-259.69,-1.99,-24.04
89,8999,0.003624,-0.148206,0.957971,73.33,-2.97,-32.02
90,9099,0.003849,-0.172680,0.956714,-35.69,24.01,3.96
91,9209,0.003655,-0.193777,0.956176,-7.69,15.01,1.96
92,9309,0.003747,-0.211361,0.954748,13.31,-2.99,15.96
93,9409,0.003166,-0.226820,0.954944,3.31,0.01,0.96
94,9509,0.003423,-0.214161,0.933046,13725.30,1904.00,-422.05
95,9619,-0.004855,-0.229566,0.988207,17753.29,-18.01,241.94
96,9719,-0.003816,-0.163065,0.955424,-1546.69,330.01,311.96
97,9819,-0.004068,-0.141237,0.937501,-989.68,1298.02,443.97
98,9919,-0.011460,-0.117282,0.937666,-2746.68,-1107.98,1889.97
99,10029,-0.014594,-0.120540,0.950074,82.32,-99.98,1151.97
100,10129,-0.017587,-0.096412,0.956025,-26.68,16.02,-230.03
1,0,-0.001062,-0.000727,0.999085,-8.68,-4.98,-1.03
2,99,-0.000263,-0.001932,0.999643,1.30,6.00,3.95
3,199,-0.000444,-0.002425,1.000264,-4.70,-4.00,-0.05
4,299,-0.000342,-0.002826,1.000170,-6.69,-0.99,-3.04
5,399,-0.000218,-0.002672,1.000016,3.30,17.00,-16.05
6,499,-0.015256,0.017033,0.914943,-4294.71,-835.01,1178.94
7,599,-0.037468,0.022392,0.870774,-7826.71,-1930.01,2257.94
8,699,-0.032948,-0.013976,0.875876,-10909.70,697.00,1578.95
9,799,-0.023008,-0.053659,0.874921,-2648.70,-530.00,613.95
10,899,-0.014962,-0.092866,0.891540,-660.71,12.99,69.94
11,999,-0.013140,-0.124067,0.889810,87.30,18.00,8.95
12,1109,-0.010840,-0.154525,0.898538,-49.70,1.00,-8.05
13,1209,-0.008336,-0.179718,0.906708,-7.69,2.01,0.96
14,1309,-0.006464,-0.201626,0.912865,0.30,1.00,3.95
15,1419,-0.004580,-0.219626,0.917659,9.30,3.00,-14.05
16,1519,0.015424,-0.211928,0.896300,13093.31,1582.01,-51.04
17,1619,-0.006116,-0.233711,0.958895,13601.30,-373.00,194.95
18,1719,-0.004357,-0.194182,0.950156,-76.70,-52.00,407.95
19,1829,0.002796,-0.170744,0.970285,-973.70,-369.00,36.95
20,1929,-0.006048,-0.163897,0.976647,-1050.72,-92.02,1531.93
21,2029,-0.007687,-0.158863,0.991649,-134.69,-73.99,501.96
22,2139,-0.005693,-0.132209,0.993414,3.29,-34.01,190.94
23,2239,-0.003833,-0.112044,0.994219,-16.70,1.00,-44.05
24,2339,-0.003662,-0.095617,0.995452,4.29,-6.01,-37.06
25,2439,-0.003919,-0.081838,0.996299,-2.71,3.99,-17.06
26,2539,-0.004211,-0.069503,0.996598,3.30,-8.00,5.95
27,2649,-0.003379,-0.058432,0.996742,3.29,0.99,-8.06
28,2749,-0.003313,-0.049791,0.997231,0.30,0.00,-4.05
29,2849,-0.003000,-0.042061,0.997683,-2.70,-1.00,-20.05
30,2949,-0.005993,-0.048711,0.989626,-198.70,5.00,103.95
31,3049,0.012611,-0.074103,1.023463,-7086.71,-669.01,1803.94
32,3159,0.010792,-0.098469,1.011045,-11033.69,614.01,463.96
33,3259,0.008055,-0.122439,1.003914,-2453.70,-717.00,558.95
34,3359,0.006681,-0.149533,0.996515,-779.70,-11.00,20.95
35,3469,0.005752,-0.175969,0.991252,-31.68,0.02,40.97
36,3569,0.005621,-0.196609,0.984434,-11.70,8.00,-12.05
37,3669,0.005308,-0.213933,0.978877,-2.70,6.00,-0.05
38,3769,0.005225,-0.228622,0.974941,-4.70,-8.00,2.95
39,3879,0.004990,-0.241437,0.971431,-0.69,7.01,-3.04
40,3979,0.008489,-0.243742,1.008401,8783.31,-416.99,-128.04
41,4079,0.004889,-0.225102,0.997509,16001.30,1783.00,-1118.05
42,4189,-0.004543,-0.162255,0.986713,-1659.70,134.00,149.95
43,4289,0.001869,-0.149027,0.967210,-878.71,8.99,449.94
44,4389,0.008766,-0.136391,0.947922,-396.68,-1352.98,614.97
45,4489,0.006260,-0.138944,0.959634,28.30,149.00,606.95
46,4589,0.006492,-0.110426,0.964151,-83.70,0.00,-128.05
47,4699,0.004474,-0.091843,0.968979,4.31,-0.99,-37.04
48,4799,0.003839,-0.078355,0.972918,6.31,6.01,-9.04
49,4899,0.002182,-0.065644,0.977383,-2.68,-2.98,0.97
50,4999,0.003026,-0.055958,0.980666,7.32,-10.98,18.97
51,5099,0.002260,-0.047138,0.983182,-4.69,13.01,1.96
52,5209,0.002287,-0.040154,0.985558,-5.70,3.00,-5.05
53,5309,0.002785,-0.033577,0.987780,-14.69,-4.99,2.96
54,5409,0.003319,-0.027437,0.989631,-3.70,13.00,-20.05
55,5519,-0.005163,0.003325,0.884216,-1634.68,-890.98,30.97
56,5619,-0.007429,0.008653,0.864853,-7696.70,84.00,-2258.05
57,5719,-0.006883,-0.025782,0.868664,-10828.68,695.02,-1140.03
58,5819,-0.023228,-0.058439,0.862931,-1946.69,-656.99,716.96
59,5929,-0.014764,-0.097862,0.883657,-708.69,15.01,-40.04
60,6029,-0.012806,-0.130236,0.894553,-2.70,62.00,79.95
61,6129,-0.011948,-0.158120,0.903870,-7.69,10.01,-0.04
62,6239,-0.010010,-0.181199,0.910379,-1.70,1.00,-8.05
63,6339,-0.008033,-0.200927,0.916553,2.30,2.00,-0.05
64,6439,-0.006683,-0.217896,0.922112,-3.70,0.00,-4.05
65,6539,0.017518,-0.242061,0.993946,9792.30,-237.00,131.95
66,6639,-0.015708,-0.205638,0.958855,15235.29,1406.99,-776.06
67,6749,-0.015055,-0.131886,1.012342,2114.32,545.02,-38.03
68,6849,-0.006059,-0.100691,0.989690,-2392.69,-144.99,609.96
69,6949,-0.012512,-0.090160,0.989204,-4187.70,-677.00,1220.95
70,7049,-0.015378,-0.100545,1.001480,-79.70,51.00,1973.95
71,7159,-0.011919,-0.086722,1.004316,-85.70,-7.00,85.95
72,7259,-0.008631,-0.074881,1.001893,9.30,-7.00,40.95
73,7359,-0.006037,-0.064761,1.002305,-3.70,13.00,-28.05
74,7459,-0.005608,-0.054548,1.002362,5.31,0.01,-9.04
75,7569,-0.004493,-0.047258,1.001861,0.30,8.00,-15.05
76,7669,-0.004168,-0.040165,1.001966,-5.69,8.01,-9.04
77,7769,-0.004020,-0.034575,1.001781,-1.71,10.99,-4.06
78,7869,-0.003179,-0.029769,1.001459,2.31,16.01,6.96
79,7969,-0.002447,-0.025299,1.001423,-0.69,-0.99,-9.04
80,8079,-0.001403,-0.022213,0.987587,-3694.70,-794.00,311.95
81,8179,-0.008042,-0.025194,0.960445,-8633.70,-488.00,-1012.05
82,8289,-0.005408,-0.062169,0.960244,-11801.69,-548.99,-15.04
83,8389,0.007908,-0.099824,0.964322,-2274.70,-452.00,237.95
84,8489,0.008625,-0.135676,0.969875,-589.70,-20.00,68.95
85,8589,0.009638,-0.163440,0.965367,-216.69,-132.99,4.96
86,8689,0.009565,-0.187552,0.961388,-41.69,1.01,-6.04
87,8799,0.009411,-0.208597,0.959966,12.31,1.01,-3.04
88,8899,0.008841,-0.225606,0.957640,-3.71,-7.01,-1.06
89,8999,0.008393,-0.240595,0.955571,-6.69,4.01,-9.04
90,9099,0.019492,-0.271023,0.998618,12105.29,-506.01,-0.06
91,9199,-0.006632,-0.202863,0.912418,14014.29,538.99,-1252.06
92,9309,-0.013383,-0.187700,0.907318,1326.32,-432.98,467.97
93,9409,-0.007311,-0.140589,0.881578,-1472.69,902.01,494.96
94,9509,-0.011837,-0.114405,0.901429,86.31,48.01,266.96
95,9619,-0.011197,-0.117253,0.915354,112.31,162.01,1600.96
96,9719,-0.007101,-0.101326,0.926074,-48.68,-0.98,601.97
97,9819,-0.000964,-0.082607,0.934874,-184.68,-181.98,-200.03
98,9919,-0.000820,-0.067263,0.944478,-75.69,-86.99,163.96
99,10029,0.000144,-0.056949,0.952367,-23.69,-36.99,-16.04
100,10129,0.003015,-0.048054,0.959970,3.32,22.02,-34.03
1,0,0.000824,-0.000874,0.998554,-5.68,-5.98,8.97
2,99,0.002366,-0.002130,0.998899,4.31,2.01,-17.04
3,199,0.002285,-0.002922,0.999266,-0.68,4.02,-3.03
4,299,0.003168,-0.003706,0.999761,1.30,7.00,-5.05
5,399,0.003278,-0.005544,1.000657,9.30,-4.00,0.95
6,499,0.014395,-0.011062,1.023264,-765.69,-657.99,-202.04
7,599,-0.057382,0.052052,0.949334,-8935.69,1522.01,-3421.04
8,699,-0.052456,0.003087,0.960339,-11186.71,890.99,-2231.06
9,799,-0.049019,-0.038295,0.936644,-2639.68,-69.98,-173.03
10,899,-0.040586,-0.088595,0.952190,-625.69,-119.99,-114.04
11,999,-0.032997,-0.131368,0.963665,-108.68,34.02,-53.03
12,1109,-0.028323,-0.159888,0.957451,-21.70,-11.00,25.95
13,1209,-0.022666,-0.184514,0.956967,8.31,3.01,-0.04
14,1309,-0.018259,-0.205483,0.955915,-13.68,13.02,-0.03
15,1419,-0.014844,-0.223436,0.954691,-7.69,7.01,6.96
16,1519,-0.020674,-0.228478,0.965864,9738.30,-1664.00,-269.05
17,1619,0.011669,-0.236663,0.996985,15471.33,2325.03,-731.02
18,1719,0.010742,-0.193450,1.115120,2627.32,453.02,-477.03
19,1829,0.013158,-0.172118,1.102338,-906.71,-248.01,-398.06
20,1929,-0.004838,-0.123646,1.037091,-1455.68,-1385.98,-346.03
21,2029,-0.009093,-0.130802,1.032608,51.32,-25.98,383.97
22,2139,-0.003958,-0.112202,1.032862,-16.69,-61.99,-192.04
23,2239,-0.004756,-0.098773,1.030131,-34.68,11.02,-9.03
24,2339,-0.004904,-0.083018,1.024805,0.31,-1.99,75.96
25,2439,-0.003271,-0.071165,1.020792,2.32,8.02,9.97
26,2539,-0.002048,-0.061034,1.017692,-1.67,-7.97,17.98
27,2649,-0.001558,-0.052588,1.014965,-0.68,12.02,-21.03
28,2749,-0.001069,-0.044695,1.012702,-0.69,-0.99,0.96
29,2849,-0.000909,-0.038645,1.010852,-6.68,7.02,-7.03
30,2949,-0.000645,-0.033155,1.009279,0.30,-5.00,6.95
31,3049,-0.000219,-0.028580,1.007649,-1.69,-5.99,-0.04
32,3159,-0.000645,-0.024544,1.006447,-9.68,-4.98,-0.03
33,3259,-0.000018,-0.021004,1.005187,-7.69,-1.99,12.96
34,3359,-0.033542,0.002403,0.929629,-4654.68,-348.98,319.97
35,3469,-0.044240,-0.023734,0.933355,-9805.69,514.01,-1388.04
36,3569,-0.030903,-0.069773,0.968401,-9331.70,-1677.00,-257.05
37,3669,-0.024236,-0.124597,1.011410,-1085.69,-108.99,-77.04
38,3769,-0.014596,-0.158217,1.013672,-784.71,-1.01,-42.06
39,3879,-0.013286,-0.181757,1.002118,-7.68,3.02,-0.03
40,3979,-0.011184,-0.202023,0.993780,15.30,-15.00,8.95
41,4079,-0.009233,-0.219817,0.988085,-3.70,-8.00,-4.05
42,4189,-0.007061,-0.235234,0.983628,6.31,-0.99,1.96
43,4289,-0.005416,-0.247314,0.976929,8.31,2.01,3.96
44,4389,-0.012423,-0.264503,0.993976,12213.31,-835.99,-59.04
45,4489,-0.025374,-0.195892,0.932020,17685.30,-830.00,-85.05
46,4589,-0.008092,-0.152917,0.882488,-1461.69,1087.01,115.96
47,4699,-0.014532,-0.117377,0.860930,-1548.69,-864.99,-575.04
48,4799,-0.003473,-0.119248,0.884190,-387.69,-95.99,279.96
49,4899,-0.002806,-0.107307,0.901268,-117.70,-31.00,110.95
50,4999,0.002393,-0.089083,0.914448,75.31,43.01,8.96
51,5109,0.000916,-0.076942,0.927080,-15.70,5.00,-5.05
52,5209,0.001474,-0.065341,0.937505,7.31,2.01,9.96
53,5309,0.001545,-0.055755,0.947063,6.31,-5.99,-21.04
54,5409,0.001093,-0.048119,0.955150,-7.68,-4.98,-6.03
55,5519,0.001002,-0.041190,0.962171,10.31,1.01,4.96
56,5619,0.000979,-0.035373,0.967534,4.31,-2.99,-0.04
57,5719,0.000520,-0.030136,0.972294,1.29,-6.01,-10.06
58,5819,0.000624,-0.025666,0.976743,4.30,-4.00,-3.05
59,5919,0.000292,-0.022251,0.981001,9.31,-0.99,-0.04
60,6029,0.000559,-0.018926,0.983979,-7.69,8.01,2.96
61,6129,-0.031112,0.001550,0.850426,-1893.69,-999.99,510.96
62,6239,-0.010643,0.017820,0.802385,-7722.68,-410.98,995.97
63,6339,-0.014614,-0.014401,0.816262,-10993.69,238.01,588.96
64,6439,-0.016616,-0.049535,0.825384,-2936.70,-310.00,-515.05
65,6539,-0.024689,-0.100199,0.858791,124.31,41.01,33.96
66,6639,-0.019869,-0.131710,0.870287,4.32,-5.98,7.97
67,6749,-0.015755,-0.158861,0.882547,-8.71,11.99,-9.06
68,6849,-0.012312,-0.181792,0.892219,-7.69,3.01,-9.04
69,6949,-0.009696,-0.201631,0.901098,-6.68,4.02,8.97
70,7049,-0.007474,-0.218458,0.907932,-4.69,2.01,-5.04
71,7149,0.022083,-0.250211,0.980794,11043.30,376.00,-225.05
72,7259,0.018787,-0.241734,0.986678,13547.29,-576.01,-278.06
73,7359,0.015767,-0.164454,1.021910,2325.31,-43.99,-110.04
74,7459,0.018418,-0.137364,0.995515,-2616.70,-17.00,186.95
75,7569,0.002673,-0.112159,0.970499,-2485.70,-693.00,972.95
76,7669,-0.001373,-0.116424,0.980472,-86.70,113.00,1074.95
77,7769,0.001175,-0.098572,0.984060,-55.71,-57.01,-177.06
78,7869,0.001712,-0.085173,0.985133,10.30,1.00,-43.05
79,7979,0.000136,-0.071733,0.986942,2.30,-1.00,48.95
80,8079,0.001598,-0.062012,0.988919,6.30,-0.00,19.95
81,8179,0.001650,-0.052413,0.990544,-5.71,3.99,-22.06
82,8289,0.001402,-0.044730,0.992439,2.29,9.99,-1.06
83,8389,0.000971,-0.038400,0.993555,3.31,13.01,-4.04
84,8489,0.001154,-0.033057,0.994467,-6.71,5.99,2.94
85,8589,0.001236,-0.027801,0.995406,-9.71,3.99,-10.06
86,8689,0.001488,-0.023700,0.996205,-1.71,6.99,4.94
87,8799,0.000935,-0.020415,0.997141,14.30,9.00,-0.05
88,8899,0.001050,-0.017659,0.997716,-8.71,1.99,5.94
89,8999,-0.050982,-0.000943,0.930346,-5450.70,283.00,1566.95
90,9099,-0.042457,-0.028647,0.951488,-10566.69,-190.99,-461.04
91,9199,-0.026329,-0.088890,1.014758,-9669.70,-290.00,669.95
92,9309,-0.019195,-0.125101,1.011922,-254.70,-77.00,-179.05
93,9409,-0.015292,-0.150478,0.997792,-106.71,-22.01,-11.06
94,9509,-0.011790,-0.174502,0.989701,12.30,5.00,-4.05
95,9619,-0.009730,-0.196296,0.985130,0.28,-2.02,0.93
96,9719,-0.007356,-0.214198,0.979981,-6.70,-1.00,-0.05
97,9819,-0.005850,-0.229708,0.975184,2.31,-0.99,-0.04
98,9919,-0.004790,-0.242616,0.970831,-3.69,-0.99,-0.04
99,10029,-0.001765,-0.254138,1.001098,13615.32,-579.98,-100.03
100,10129,0.020161,-0.097470,0.868841,8845.31,-467.99,-256.04
1,0,0.000732,-0.000178,0.999414,12.32,11.02,0.97
2,99,0.001115,-0.000459,1.000692,-15.72,-11.02,-7.07
3,199,0.000964,-0.001064,1.000405,-13.75,1.95,-8.10
4,299,0.001312,-0.000863,0.999062,25.28,5.98,-14.07
5,399,0.012741,-0.010306,1.000264,-7648.73,640.97,1386.92
6,499,0.036976,-0.018296,0.963201,-10163.72,-342.02,343.93
7,599,0.034486,-0.102028,1.063221,-4878.71,1033.99,490.94
8,699,0.029183,-0.132239,1.035775,-356.72,-51.02,-99.07
9,799,0.026910,-0.162589,1.024073,-540.73,-105.03,-39.08
10,899,0.021261,-0.192175,1.021213,-39.71,70.99,-22.06
11,999,0.019517,-0.211227,1.008637,11.27,-18.03,2.92
12,1109,0.018107,-0.227860,0.998717,-8.72,8.98,-11.07
13,1209,0.017348,-0.242182,0.990834,-2.74,10.96,19.91
14,1309,0.013774,-0.291544,1.047653,1295.29,-269.01,-169.06
15,1419,0.033936,-0.263756,1.036898,13145.28,384.98,230.93
16,1519,0.040086,-0.227119,1.138168,1282.27,105.97,-735.08
17,1619,0.033449,-0.182042,1.156005,850.26,2193.96,219.91
18,1719,0.028247,-0.165626,1.100103,89.28,-821.02,-381.07
19,1829,0.024667,-0.164948,1.090196,78.28,18.98,577.93
20,1929,0.023309,-0.134270,1.078167,-130.74,-22.04,29.91
21,2029,0.021551,-0.112861,1.063201,1.28,2.98,14.93
22,2139,0.017895,-0.095580,1.053336,-5.73,1.97,20.92
23,2239,0.015740,-0.081404,1.044932,-7.74,6.96,-20.09
24,2339,0.013084,-0.068164,1.038522,0.28,0.98,0.93
25,2439,0.011815,-0.058338,1.032890,7.27,-3.03,-17.08
26,2539,0.009181,-0.049309,1.028542,2.28,3.98,-0.07
27,2649,0.008589,-0.042366,1.024370,-1.73,-1.03,-8.08
28,2749,0.007152,-0.035696,1.021172,-1.74,-1.04,-0.09
29,2849,0.006517,-0.030246,1.018069,5.25,-8.05,-9.10
30,2949,0.005647,-0.025815,1.015120,-0.73,6.97,-8.08
31,3049,0.003718,-0.021389,1.012706,1.28,-5.02,-5.07
32,3159,-0.015609,0.010937,0.915402,-2643.73,165.97,437.92
33,3259,-0.000617,-0.004543,0.911721,-9038.74,9.96,-295.09
34,3359,0.003959,-0.055877,0.934026,-11483.73,-1054.03,284.92
35,3469,0.007429,-0.102606,0.965492,-1793.73,5.97,116.92
36,3569,0.005616,-0.128062,0.958491,108.26,-68.04,-39.09
37,3669,0.003820,-0.156695,0.957448,-5.74,63.96,14.91
38,3769,0.004142,-0.179933,0.956598,0.27,1.97,-0.08
39,3879,0.003922,-0.200437,0.955747,-0.73,10.97,5.92
40,3979,0.003551,-0.217316,0.954328,-5.73,11.97,8.92
41,4079,0.003676,-0.231736,0.953415,-10.73,-4.03,-5.08
42,4189,-0.018264,-0.230058,0.936800,11581.28,159.98,-155.07
43,4289,-0.041289,-0.197615,0.924728,18063.27,-1396.03,-324.08
44,4389,-0.028726,-0.138983,0.846260,-179.74,277.96,508.91
45,4489,-0.029509,-0.119505,0.901016,-613.73,176.97,-255.08
46,4589,-0.033508,-0.120728,0.924817,-1085.74,-238.04,1648.91
47,4699,-0.033537,-0.115798,0.944664,-84.72,-32.02,-15.07
48,4799,-0.032133,-0.094360,0.952433,-10.72,4.98,144.93
49,4899,-0.025869,-0.079598,0.959110,0.26,-7.04,49.91
50,4999,-0.022851,-0.068350,0.965225,-5.73,-1.03,-10.08
51,5109,-0.018181,-0.057929,0.970862,4.26,9.96,18.91
52,5209,-0.015419,-0.049254,0.974976,-4.73,6.97,-24.08
53,5309,-0.013694,-0.041953,0.978930,-7.72,-1.02,-13.07
54,5409,-0.011990,-0.035382,0.981578,-7.75,6.95,5.90
55,5519,-0.010120,-0.030016,0.984359,3.26,5.96,2.91
56,5619,-0.008586,-0.025491,0.986485,-10.74,-1.04,-8.09
57,5719,-0.007392,-0.021352,0.988475,-4.74,0.96,-10.09
58,5819,0.010506,0.012049,0.911633,-5191.73,-954.03,-674.08
59,5929,0.008763,-0.012551,0.911503,-9436.73,332.97,-1511.08
60,6029,0.028962,-0.067684,0.959640,-10410.74,75.96,132.91
61,6129,0.028900,-0.124471,1.010060,-1444.74,62.96,49.91
62,6239,0.026156,-0.152415,0.996246,-496.73,-8.03,-0.08
63,6339,0.022634,-0.176497,0.989631,11.26,-13.04,15.91
64,6439,0.019603,-0.197150,0.984063,-11.74,0.96,-1.09
65,6539,0.017173,-0.214577,0.978708,0.25,2.95,6.90
66,6639,0.015382,-0.229737,0.974156,-3.73,-17.03,-3.08
67,6749,0.014116,-0.242697,0.971294,-21.74,5.96,-5.09
68,6849,0.004582,-0.264589,0.995705,12844.29,-147.01,212.94
69,6949,-0.002901,-0.199628,0.937059,16681.27,-1254.04,220.91
70,7049,0.018590,-0.169771,0.908542,-590.72,827.98,143.93
71,7149,-0.008956,-0.132363,0.926673,-2836.74,632.96,-92.09
72,7259,0.000259,-0.129918,0.925257,-749.73,-257.03,2106.92
73,7359,-0.005586,-0.121578,0.937494,-68.73,-43.03,423.92
74,7459,-0.006563,-0.101616,0.949048,-29.73,-14.03,23.92
75,7569,-0.005379,-0.085033,0.958302,-9.74,-8.04,27.91
76,7669,-0.004227,-0.073483,0.964483,-6.74,3.96,-10.09
77,7769,-0.003869,-0.061980,0.969444,-14.74,-4.04,17.91
78,7869,-0.002961,-0.052991,0.973807,10.27,3.97,8.92
79,7979,-0.003051,-0.044434,0.978230,1.25,9.95,-7.10
80,8079,-0.002998,-0.037911,0.981367,1.27,0.97,0.92
81,8179,-0.002587,-0.032550,0.984052,0.27,4.97,0.92
82,8289,-0.001395,-0.027645,0.986077,-12.74,-5.04,-8.09
83,8389,-0.001371,-0.023092,0.988605,13.27,1.97,-13.08
84,8489,0.033018,-0.015871,0.969146,-6077.75,-796.05,1000.90
85,8589,0.027496,-0.034964,0.951728,-10982.73,-41.03,-893.08
86,8689,0.022344,-0.128410,1.085458,-4805.73,602.97,480.92
87,8799,0.016134,-0.146479,1.042408,-460.73,-19.03,-69.08
88,8899,0.014152,-0.174546,1.033318,-418.74,-48.04,11.91
89,8999,0.014608,-0.195382,1.018817,18.25,0.95,16.90
90,9099,0.013038,-0.213532,1.007736,12.28,-0.02,5.93
91,9209,0.012491,-0.228739,0.999086,0.27,-10.03,3.92
92,9309,0.011970,-0.241354,0.991478,8.28,4.98,11.93
93,9409,0.013945,-0.303749,1.065760,4465.26,-572.04,-375.09
94,9509,0.047099,-0.287333,1.064794,13216.26,948.96,202.91
95,9619,0.036296,-0.205063,1.101492,3096.26,-92.04,-817.09
96,9719,0.019589,-0.143794,1.080262,-1587.74,340.96,-207.09
97,9819,0.018864,-0.109697,1.038028,-1595.73,-472.03,-296.08
98,9919,0.028923,-0.117537,1.037286,-82.75,-8.05,1144.90
99,10029,0.027933,-0.097504,1.032699,-102.73,-14.03,-24.08
100,10129,0.026873,-0.084906,1.028014,-11.73,7.97,7.92
1,0,0.001206,0.000480,1.000897,-7.75,12.95,-9.10
2,99,0.000912,-0.000175,1.000432,-4.76,7.94,-2.11
3,199,0.001231,-0.000072,1.000513,-12.74,10.96,-5.09
4,299,0.001190,0.000291,1.000509,-9.75,12.95,-21.10
5,399,-0.000217,0.000287,0.999937,2.25,13.95,-3.10
6,499,0.003456,0.004514,0.972517,-5378.77,1084.93,-99.12
7,599,0.015679,0.008107,0.928152,-8779.77,271.93,-1859.12
8,699,0.028339,-0.045437,0.970295,-9668.74,-842.04,-585.09
9,799,0.025441,-0.104682,1.013147,-1334.75,48.95,-11.10
10,899,0.047605,-0.149639,1.023900,-808.76,261.94,6.89
11,999,0.044215,-0.174523,1.013100,29.24,-29.06,24.89
12,1109,0.039777,-0.195454,1.002071,-14.76,-9.06,7.89
13,1209,0.035438,-0.213904,0.994893,6.26,0.96,-9.09
14,1309,0.031145,-0.229441,0.987455,-18.75,10.95,-5.10
15,1419,0.027038,-0.242775,0.981316,3.23,2.93,10.88
16,1519,-0.000530,-0.218898,0.926788,11746.26,-49.04,-511.09
17,1619,-0.008253,-0.214075,0.947364,18350.26,-588.04,158.91
18,1719,-0.004344,-0.157918,0.876212,517.27,172.97,375.92
19,1829,-0.008034,-0.125547,0.893682,-261.73,-622.03,-114.08
20,1929,-0.017140,-0.128867,0.921403,-1175.74,-239.04,993.91
21,2029,-0.023653,-0.122240,0.926490,259.25,-20.05,401.90
22,2139,-0.021719,-0.100971,0.937882,18.26,-69.04,435.91
23,2239,-0.018353,-0.087726,0.947328,20.26,-8.04,34.91
24,2339,-0.016280,-0.075112,0.954734,-17.74,10.96,-6.09
25,2439,-0.013291,-0.064043,0.961779,-13.75,-3.05,-10.10
26,2539,-0.011776,-0.055330,0.967768,-6.75,-0.05,-7.10
27,2649,-0.009865,-0.047741,0.972438,2.26,8.96,5.91
28,2749,-0.008882,-0.040796,0.976407,-4.73,-3.03,0.92
29,2849,-0.007735,-0.035313,0.980238,-4.74,-0.04,5.91
30,2949,-0.007035,-0.030507,0.983715,-4.75,-7.05,-0.10
31,3049,-0.005780,-0.026037,0.986212,2.26,-0.04,-6.09
32,3159,-0.001015,-0.027749,0.983574,-119.75,87.95,-34.10
33,3259,-0.019011,-0.004979,0.929366,-6667.75,-543.05,633.90
34,3359,-0.006842,-0.034624,0.943055,-10962.75,-262.05,65.90
35,3469,-0.016182,-0.073354,0.951651,-1374.76,-510.06,607.89
36,3569,-0.016046,-0.102997,0.936637,-866.75,-345.05,-34.10
37,3669,-0.011939,-0.138136,0.942406,-419.75,3.95,55.90
38,3769,-0.010205,-0.167821,0.947272,-89.74,2.96,23.91
39,3879,-0.008640,-0.190691,0.946593,46.25,-3.05,-4.10
40,3979,-0.006028,-0.210057,0.945119,-11.75,1.95,2.90
41,4079,-0.005200,-0.227214,0.946814,-28.74,8.96,-4.09
42,4189,-0.015244,-0.225611,0.958545,9380.25,-1759.05,-187.10
43,4289,0.030656,-0.242779,1.003123,15276.25,1603.95,-635.10
44,4389,0.026513,-0.186711,1.082836,2876.25,240.95,-210.10
45,4489,0.023981,-0.171775,1.084875,-2466.74,-552.04,-198.09
46,4589,0.013441,-0.143698,1.092669,-335.75,-15.05,-642.10
47,4699,0.006094,-0.139736,1.076040,-127.75,212.95,191.90
48,4799,0.005068,-0.115860,1.062693,-69.75,-7.05,-182.10
49,4899,0.000570,-0.099228,1.054405,-0.76,-3.06,-1.11
50,4999,0.001727,-0.083260,1.046482,3.26,-4.04,57.91
51,5109,-0.000054,-0.071372,1.039875,-3.75,0.95,-4.10
52,5209,0.000885,-0.060553,1.033637,1.24,0.94,13.89
53,5309,0.000786,-0.051887,1.028627,-2.75,2.95,-17.10
54,5409,0.001472,-0.044027,1.024699,1.25,1.95,-0.10
55,5519,0.000443,-0.037108,1.021415,0.25,3.95,0.90
56,5619,0.000997,-0.031355,1.018184,4.26,11.96,-2.09
57,5719,-0.052018,-0.031793,0.981361,-5839.76,-1536.06,1715.89
58,5819,-0.038468,-0.043317,0.983479,-9528.75,640.95,20.90
59,5929,-0.025962,-0.123791,1.087397,-6921.75,327.95,590.90
60,6029,-0.022546,-0.145832,1.078993,-332.75,-163.05,75.90
61,6129,-0.019478,-0.170737,1.059160,-530.76,-29.06,-40.11
62,6239,-0.017145,-0.193316,1.042869,9.25,-4.05,2.90
63,6339,-0.013020,-0.211996,1.027814,-18.76,18.94,-3.11
64,6439,-0.010190,-0.227178,1.015566,1.25,-1.05,5.90
65,6539,-0.007437,-0.241071,1.005431,-4.75,15.95,-3.10
66,6639,-0.006452,-0.295269,1.068904,3210.25,-694.05,-334.10
67,6749,0.038788,-0.282323,1.069389,13658.25,1589.95,-87.10
68,6849,0.048312,-0.144078,0.990041,10311.26,515.96,-569.09
69,6949,0.038170,-0.106807,1.001440,-3102.75,1659.95,-102.10
70,7049,0.055641,-0.088732,0.963321,-2547.76,-1295.06,159.89
71,7159,0.051156,-0.106693,0.982537,-378.75,36.95,1109.90
72,7259,0.049266,-0.086071,0.976330,-24.75,-22.05,-169.10
73,7359,0.048172,-0.070850,0.981253,50.24,6.94,136.89
74,7459,0.040468,-0.060786,0.985346,-11.75,-6.05,-4.10
75,7569,0.035567,-0.051280,0.988056,-5.76,-2.06,-30.11
76,7669,0.028892,-0.043823,0.989609,-2.77,-2.07,5.88
77,7769,0.025087,-0.037045,0.991057,-10.76,0.94,6.89
78,7869,0.020460,-0.031393,0.992343,-0.76,4.94,14.89
79,7969,0.017718,-0.026992,0.992942,-4.75,1.95,-1.10
80,8079,0.014582,-0.022793,0.994055,-4.75,10.95,-14.10
81,8179,0.018782,-0.027024,0.995825,-5633.76,-515.06,17.89
82,8289,0.013289,-0.044079,0.988687,-9691.76,528.94,-489.11
83,8389,0.015193,-0.125537,1.073183,-9605.75,827.95,376.90
84,8489,0.007895,-0.166139,1.092399,-823.76,26.94,-35.11
85,8589,0.005060,-0.186607,1.067314,-521.76,-10.06,-29.11
86,8689,0.005214,-0.206384,1.049251,-9.75,17.95,-1.10
87,8799,0.005070,-0.223305,1.034100,-15.75,-10.05,-6.10
88,8899,0.004894,-0.236900,1.020836,-4.73,-2.03,3.92
89,8999,0.004798,-0.248712,1.010404,-10.75,-11.05,-7.10
90,9099,0.004516,-0.258680,1.001372,7.26,-11.04,14.91
91,9199,-0.018577,-0.245381,0.967017,11502.23,-186.07,-457.12
92,9309,-0.032199,-0.148823,0.884695,16912.24,-1265.06,-408.11
93,9409,-0.035282,-0.089747,0.826276,-1122.75,-388.05,235.90
94,9509,-0.026275,-0.064526,0.852261,782.25,1042.95,-277.10
95,9619,-0.023252,-0.071451,0.878120,80.24,-114.06,44.89
96,9719,-0.016489,-0.072521,0.899057,-33.74,-71.04,645.91
97,9819,-0.012938,-0.057245,0.914252,2.25,-16.05,380.90
98,9919,-0.009772,-0.047190,0.927059,-2.74,-7.04,-42.09
99,10029,-0.007521,-0.039796,0.939172,-4.74,2.96,-27.09
100,10129,-0.005809,-0.033750,0.948332,-4.74,-5.04,21.91
1,0,0.001023,0.000626,0.999853,6.26,10.96,-4.09
2,99,0.000116,-0.000251,1.000808,9.24,4.94,-17.11
3,199,-0.000325,-0.000595,0.999991,-7.75,8.95,8.90
4,299,-0.000663,-0.000374,1.000083,8.24,4.94,-1.11
5,399,-0.000475,-0.001065,1.000216,3.23,-14.07,9.88
6,499,0.000033,-0.001506,0.999963,-5.76,11.94,-3.11
7,599,0.000171,-0.002028,0.998265,-19.77,3.93,17.88
8,699,0.035500,-0.025432,0.997023,-7600.78,-27.08,2901.87
9,799,0.027499,-0.041701,0.970497,-10351.75,-1114.05,630.90
10,899,0.030421,-0.126903,1.083723,-4720.77,557.93,534.88
11,999,0.020783,-0.150748,1.064572,-427.75,-171.05,184.90
12,1109,0.019311,-0.174421,1.048019,-25.76,215.94,-44.11
13,1209,0.018425,-0.194800,1.030726,-15.78,-3.08,13.87
14,1309,0.017709,-0.212800,1.018518,2.23,0.93,11.88
15,1419,0.017357,-0.227660,1.008122,4.23,0.93,1.88
16,1519,0.016014,-0.239760,0.999982,2.24,16.94,14.89
17,1619,0.010021,-0.287838,1.052572,2067.25,-305.05,-133.10
18,1719,0.033655,-0.266174,1.037398,13989.22,100.92,217.87
19,1829,0.033420,-0.171734,1.026752,4972.25,352.95,-812.10
20,1929,0.015000,-0.111455,1.019168,-758.76,829.94,-24.11
21,2029,0.017673,-0.089570,0.983186,-1678.77,-463.07,226.88
22,2139,0.020348,-0.104036,0.996657,-674.76,46.94,1234.89
23,2239,0.021047,-0.088445,0.996444,-98.75,-6.05,-230.10
24,2339,0.019975,-0.078031,0.995732,2.25,18.95,-49.10
25,2439,0.014944,-0.067312,0.996481,-20.76,-2.06,7.89
26,2539,0.013487,-0.056717,0.997210,4.24,-3.06,3.89
27,2649,0.011901,-0.048609,0.997628,-2.75,-7.05,7.90
28,2749,0.009600,-0.040563,0.998313,-3.76,14.94,-6.11
29,2849,0.007901,-0.035318,0.998492,0.23,14.93,8.88
30,2949,0.007061,-0.029724,0.998626,-7.77,4.93,-8.12
31,3049,0.006420,-0.025994,0.999307,8.24,-2.06,5.89
32,3159,0.005344,-0.022000,0.999465,-5.78,0.92,0.87
33,3259,0.004045,-0.019337,1.000094,-0.75,-2.05,-5.10
34,3359,0.003252,-0.016562,0.999713,-11.78,3.92,-2.13
35,3469,0.003146,-0.014788,0.999609,-6.76,0.94,9.89
36,3569,0.003368,-0.012713,0.998989,0.25,1.95,-3.10
37,3669,0.030417,-0.012926,0.981599,-6862.75,-367.05,-171.10
38,3769,0.014316,-0.016257,0.939113,-9712.76,-5.06,-609.11
39,3879,0.023976,-0.119650,1.069754,-5131.76,412.94,698.89
40,3979,0.017704,-0.145718,1.050611,-292.75,-32.05,180.90
41,4079,0.016236,-0.171830,1.038936,-478.75,54.95,17.90
42,4189,0.014988,-0.195545,1.028865,-39.76,-2.06,-4.11
43,4289,0.013305,-0.214348,1.017705,32.24,10.94,-19.11
44,4389,0.012698,-0.230185,1.006186,9.24,-1.06,1.89
45,4489,0.011724,-0.243279,0.997201,-16.77,15.93,-10.12
46,4589,0.018972,-0.304104,1.071338,2509.25,56.95,-141.10
47,4699,0.037803,-0.288569,1.078856,12667.25,75.95,66.90
48,4799,0.042036,-0.174254,1.030571,4423.24,517.94,-415.11
49,4899,0.041880,-0.133684,1.055427,-1560.77,1241.93,202.88
50,4999,0.041637,-0.113152,1.018768,-1133.76,-511.06,42.89
51,5099,0.043446,-0.122122,1.014249,-122.76,36.94,457.89
52,5209,0.041504,-0.099589,1.007991,-187.76,-14.06,166.89
53,5309,0.036319,-0.087741,1.005858,23.24,3.94,-82.11
54,5409,0.028305,-0.073789,1.004942,-23.76,-2.06,2.89
55,5519,0.024935,-0.063120,1.003632,-1.76,9.94,-19.11
56,5619,0.020039,-0.052587,1.003068,-3.76,6.94,6.89
57,5719,0.017525,-0.044860,1.002370,-4.76,-0.06,-5.11
58,5819,0.014380,-0.037377,1.002031,-5.78,-4.08,1.87
59,5919,0.012806,-0.031822,1.002092,-0.75,-3.05,-1.10
60,6029,0.010077,-0.026514,1.002034,-5.75,-2.05,7.90
61,6129,0.008636,-0.022771,1.001417,-2.75,8.95,4.90
62,6239,0.006533,-0.019151,1.000984,0.24,-7.06,11.89
63,6339,0.006026,-0.015725,1.001001,-6.76,-7.06,4.89
64,6439,0.005083,-0.013381,1.000758,-3.76,-1.06,13.89
65,6539,0.003402,-0.033142,1.030600,-1818.77,1177.93,-162.12
66,6639,0.027920,-0.029742,0.991732,-8454.74,-437.04,-298.09
67,6749,0.009374,-0.085043,1.023550,-10670.76,-1419.06,-573.11
68,6849,0.019720,-0.130822,1.042374,-2706.77,-101.07,49.88
69,6949,0.016411,-0.160395,1.034552,-397.76,123.94,-36.11
70,7049,0.013269,-0.183812,1.023564,-4.77,-12.07,9.88
71,7159,0.011862,-0.203002,1.012412,4.24,-8.06,-11.11
72,7259,0.010995,-0.219112,1.002767,-2.77,-11.07,0.88
73,7359,0.009709,-0.233410,0.995265,1.25,11.95,4.90
74,7459,0.008928,-0.245453,0.988138,2.24,6.94,0.89
75,7569,-0.008600,-0.248420,0.983087,11877.26,198.96,-163.09
76,7669,-0.023445,-0.197860,0.944809,17480.24,-1348.06,-349.11
77,7769,-0.017459,-0.171364,0.926115,-828.76,2.94,378.89
78,7869,-0.019750,-0.104914,0.876736,-2369.75,939.95,439.90
79,7979,-0.014117,-0.116566,0.901835,-1250.77,-319.07,2415.88
80,8079,-0.018392,-0.108160,0.908722,-105.76,-28.06,782.89
81,8179,-0.018109,-0.088728,0.923402,-55.78,8.92,-137.13
82,8289,-0.015597,-0.075489,0.935165,-5.77,9.93,26.88
83,8389,-0.012180,-0.063558,0.944762,2.23,3.93,-10.12
84,8489,-0.011308,-0.054222,0.953193,-5.77,-0.07,-0.12
85,8589,-0.009322,-0.046488,0.960067,8.24,17.94,1.89
86,8689,-0.008109,-0.039713,0.965873,-1.76,3.94,-2.11
87,8799,-0.007098,-0.033259,0.970973,-3.78,-7.08,8.87
88,8899,-0.006476,-0.028084,0.974850,-7.77,4.93,9.88
89,8999,-0.005690,-0.023428,0.978548,0.24,12.94,-4.11
90,9099,-0.005773,-0.019673,0.981692,-2.76,-3.06,-7.11
91,9199,-0.017490,-0.015656,0.982533,-1743.77,1222.93,494.88
92,9309,0.005492,-0.012920,0.951974,-8693.78,158.92,-55.13
93,9409,-0.008756,-0.058330,0.973844,-10480.75,-1896.05,-189.10
94,9509,0.003302,-0.106157,0.996736,-2278.77,147.93,70.88
95,9619,0.000717,-0.138167,0.990194,-336.76,-22.06,34.89
96,9719,0.000734,-0.164954,0.985255,-37.77,34.93,-5.12
97,9819,0.000731,-0.187064,0.979373,15.23,0.93,2.88
98,9919,0.000985,-0.206261,0.975142,-1.77,-0.07,6.88
99,10029,0.001346,-0.222633,0.971198,-1.77,-1.07,-6.12
100,10129,0.001728,-0.236732,0.967241,-10.76,6.94,1.89
1,0,0.001718,-0.000088,0.998956,7.23,-6.07,-8.12
2,99,0.000999,-0.000530,0.999368,-3.78,-3.08,-20.13
3,199,0.001029,-0.001619,0.999901,-8.78,-5.08,8.87
4,299,-0.002003,0.044385,0.878919,-6629.77,-295.07,2841.88
5,399,0.010581,0.025829,0.884666,-8878.77,441.93,432.88
6,499,0.044989,-0.035739,0.947577,-9111.77,61.93,600.88
7,599,0.040636,-0.094956,0.982667,-705.78,12.92,56.87
8,699,0.034830,-0.128262,0.975561,-177.78,146.92,170.87
9,799,0.031946,-0.156865,0.973074,23.22,-4.08,-7.13
10,899,0.028103,-0.181709,0.969879,-13.78,15.92,-3.13
11,999,0.025276,-0.202258,0.966578,-1.77,3.93,-8.12
12,1109,0.023020,-0.219285,0.963955,-8.77,3.93,-9.12
13,1209,0.021010,-0.233942,0.961414,7.21,6.91,8.86
14,1309,-0.003587,-0.239772,0.959236,11909.22,-569.08,-244.13
15,1419,0.000152,-0.133600,0.859368,14594.22,-1155.08,365.87
16,1519,0.008147,-0.124928,0.899725,-1865.77,1685.93,326.88
17,1619,-0.007837,-0.065884,0.833558,-1187.77,-131.07,302.88
18,1719,-0.002489,-0.075627,0.861233,-150.77,-151.07,1584.88
19,1829,0.000298,-0.062229,0.877305,-94.77,-22.07,120.88
20,1929,0.001020,-0.057157,0.897137,5.24,16.94,-1.11
21,2029,0.001010,-0.048214,0.912767,-27.77,1.93,-41.12
22,2139,0.000434,-0.041601,0.925668,12.23,8.93,-2.12
23,2239,0.000494,-0.035266,0.937348,-9.77,6.93,2.88
24,2339,0.000600,-0.029826,0.946617,-4.77,1.93,19.88
25,2439,0.001166,-0.026210,0.954239,-2.78,-2.08,-2.13
26,2539,0.001482,-0.021946,0.961340,-2.78,-4.08,5.87
27,2649,0.001440,-0.019291,0.967724,-1.77,2.93,-15.12
28,2749,0.000434,-0.015955,0.973535,-14.77,-0.07,-10.12
29,2849,0.000695,-0.012936,0.977303,3.23,-9.07,16.88
30,2949,-0.002305,0.005341,0.916327,-3587.78,-1537.08,1481.87
31,3049,0.015359,-0.017283,0.935340,-9833.77,513.93,274.88
32,3159,0.015341,-0.085147,1.005903,-8621.78,361.92,117.87
33,3259,0.007379,-0.131826,1.034423,-872.77,-22.07,-153.12
34,3359,0.003925,-0.161121,1.015544,13.22,77.92,3.87
35,3469,0.005145,-0.183971,1.006748,6.22,-6.08,14.87
36,3569,0.004737,-0.203888,0.998557,3.23,-10.07,-8.12
37,3669,0.004847,-0.220341,0.991320,-7.77,-0.07,3.88
38,3769,0.004007,-0.234473,0.985426,8.24,8.94,-5.11
39,3869,0.003714,-0.246503,0.979261,-6.77,-3.07,3.88
40,3979,0.001122,-0.247464,0.988157,13800.23,-611.07,-187.12
41,4079,0.007341,-0.193129,0.948991,14508.22,-723.08,222.87
42,4189,0.015758,-0.124130,0.900538,-814.76,1705.94,293.89
43,4289,-0.008655,-0.083479,0.883047,-1870.78,-2700.08,307.87
44,4389,-0.001738,-0.089997,0.899399,-1396.77,-442.07,2320.88
45,4489,0.000076,-0.090795,0.925090,-136.78,-24.08,240.87
46,4589,-0.004663,-0.075415,0.933341,21.22,-2.08,-9.13
47,4699,-0.002703,-0.066260,0.943961,-4.77,5.93,57.88
48,4799,-0.001880,-0.056519,0.952641,-7.77,8.93,25.88
49,4899,-0.001839,-0.049008,0.959433,7.24,6.94,-2.11
50,4999,-0.001530,-0.043027,0.965480,-3.78,8.92,12.87
51,5099,-0.000992,-0.036717,0.970804,-10.79,6.91,4.86
52,5209,-0.001982,-0.031865,0.975347,-1.77,2.93,-2.12
53,5309,-0.002145,-0.027375,0.978880,-6.77,3.93,-7.12
54,5409,-0.002632,-0.023320,0.981864,-8.77,2.93,-7.12
55,5519,-0.000849,-0.020643,0.984656,-0.78,5.92,45.87
56,5619,0.007753,-0.041585,1.036524,-3615.78,-10.08,182.87
57,5719,0.020521,-0.038054,1.004549,-8824.77,-1404.07,14.88
58,5819,0.012606,-0.057117,0.975814,-11019.78,208.92,339.87
59,5929,0.023437,-0.093572,0.963071,-2802.78,-516.08,389.87
60,6029,0.024789,-0.133219,0.973718,-639.77,103.93,-97.12
61,6129,0.018797,-0.158332,0.958159,-76.78,43.92,86.87
62,6239,0.016451,-0.182168,0.953503,0.23,16.93,-5.12
63,6339,0.014804,-0.202978,0.952145,-28.77,-1.07,9.88
64,6439,0.013807,-0.220941,0.951797,-2.77,3.93,1.88
65,6539,0.011605,-0.235898,0.950805,6.23,12.93,-8.12
66,6639,0.012718,-0.241306,0.968346,12272.24,-772.06,55.89
67,6749,-0.019075,-0.252769,1.003049,14037.23,-492.07,-177.12
68,6849,-0.018799,-0.217121,0.996677,-1155.77,608.93,487.88
69,6949,0.000937,-0.188413,0.969983,-389.77,-665.07,-164.12
70,7049,-0.004059,-0.163462,0.972434,-899.76,-389.06,118.89
71,7159,0.008193,-0.162029,0.978271,39.24,41.94,1128.89
72,7259,0.011502,-0.137611,0.982995,-3.77,-15.07,286.88
73,7359,0.007594,-0.117369,0.985178,-61.78,-55.08,155.87
74,7459,0.006141,-0.097526,0.985515,-101.75,-117.05,250.90
75,7569,0.003496,-0.079543,0.983622,38.23,-37.07,-136.12
76,7669,0.005844,-0.066894,0.983661,7.24,33.94,-16.11
77,7769,0.006795,-0.055978,0.985781,37.23,24.93,58.88
78,7869,0.006176,-0.047651,0.987492,3.24,-7.06,13.89
79,7979,0.004826,-0.040646,0.988452,4.24,2.94,-16.11
80,8079,0.002689,-0.034784,0.990861,-3.77,-1.07,-23.12
81,8179,0.017590,-0.055033,1.039527,-7596.78,1143.92,-3813.13
82,8289,-0.004022,-0.046647,0.976194,-11517.78,604.92,-4391.13
83,8389,-0.012247,-0.106260,1.028946,-3991.76,503.94,504.89
84,8489,-0.011823,-0.136882,1.023340,-687.77,-359.07,-64.12
85,8589,-0.008936,-0.164961,1.016762,-87.78,-3.08,-12.13
86,8689,-0.006060,-0.185806,1.007655,-5.76,12.94,-7.11
87,8799,-0.004513,-0.206254,1.005426,-180.77,84.93,-3.12
88,8899,-0.002996,-0.221693,0.999100,-8.76,12.94,-1.11
89,8999,-0.002861,-0.233699,0.992239,-1.76,14.94,-4.11
90,9099,-0.007654,-0.291713,1.069446,7503.22,-124.08,-693.13
91,9209,0.018979,-0.272563,1.068843,15538.22,2227.92,-261.13
92,9309,0.024974,-0.226603,1.159883,-87.76,519.94,-53.11
93,9409,0.024136,-0.180890,1.178472,26.23,1351.93,37.88
94,9509,0.014416,-0.159924,1.122934,-1482.76,-224.06,832.89
95,9619,0.011390,-0.155451,1.090065,7.23,34.93,529.88
96,9719,0.007518,-0.126508,1.080601,-12.76,-25.06,-81.11
97,9819,0.007468,-0.105258,1.069096,-29.76,0.94,29.89
98,9919,0.007096,-0.089667,1.057284,9.25,-1.05,-37.10
99,10029,0.005479,-0.075628,1.048654,2.22,-10.08,16.87
100,10129,0.005497,-0.064482,1.040989,3.25,-2.05,-9.10
1,0,0.000455,-0.001681,1.000347,-3.76,6.94,-18.11
2,99,0.001171,-0.001261,0.999635,-2.78,-2.08,18.87
3,199,0.002018,-0.001984,0.999378,-5.77,9.93,-4.12
4,299,0.003525,-0.002415,1.001759,-28.76,-1.06,4.89
5,399,-0.009953,0.024171,0.918401,-2059.78,1028.92,320.87
6,499,-0.009506,0.024137,0.903852,-6668.76,-292.06,2476.89
7,599,0.003049,-0.017694,0.907818,-10828.77,54.93,901.88
8,699,-0.015557,-0.045304,0.909614,-2198.78,-466.08,637.87
9,799,-0.008997,-0.083586,0.911764,-841.76,-97.06,33.89
10,899,-0.007851,-0.119512,0.918297,32.23,42.93,-20.12
11,999,-0.006255,-0.148439,0.921781,-9.76,20.94,19.89
12,1109,-0.004642,-0.173649,0.926042,-2.76,4.94,0.89
13,1209,-0.003052,-0.195206,0.929133,-5.78,5.92,1.87
14,1309,-0.002066,-0.213602,0.932200,13.23,9.93,-1.12
15,1419,0.031401,-0.250754,1.007848,10622.21,160.91,-103.14
16,1519,-0.000687,-0.211545,0.966423,15003.23,1144.93,-411.12
17,1619,-0.003718,-0.133081,0.984881,1010.23,1078.93,-189.12
18,1719,-0.009993,-0.112951,0.968910,-73.77,468.93,33.88
19,1829,-0.006245,-0.103036,0.956471,-2966.76,-1019.06,1306.89
20,1929,-0.010347,-0.119731,0.980028,177.23,-202.07,1010.88
21,2029,-0.005996,-0.103398,0.983499,-158.77,-74.07,-282.12
22,2139,-0.004606,-0.088050,0.988848,7.22,14.92,-30.13
23,2239,-0.003643,-0.074528,0.991527,-5.78,-6.08,13.87
24,2339,-0.002990,-0.062558,0.992651,-2.76,3.94,-20.11
25,2439,-0.001977,-0.052969,0.993752,3.23,6.93,-2.12
26,2539,-0.001152,-0.044416,0.994542,0.22,-4.08,10.87
27,2649,-0.001037,-0.037531,0.995525,-9.77,17.93,-14.12
28,2749,-0.000794,-0.032576,0.995884,-0.78,2.92,-26.13
29,2849,-0.000696,-0.027888,0.996684,-7.78,-7.08,-27.13
30,2949,-0.000321,-0.023793,0.997235,-0.78,7.92,-16.13
31,3049,-0.000037,-0.020129,0.997722,-6.75,5.95,-32.10
32,3159,-0.000346,-0.017527,0.996763,6.23,-7.07,-27.12
33,3259,-0.000407,-0.016158,0.997559,-2.76,12.94,-37.11
34,3359,-0.000440,-0.014940,0.997595,-4.77,7.93,-17.12
35,3469,-0.001018,-0.013062,0.997424,-8.78,7.92,43.87
36,3569,-0.000905,-0.010605,0.998377,-3.76,4.94,28.89
37,3669,-0.000424,-0.008644,0.998473,-9.77,1.93,2.88
38,3769,0.000076,-0.007216,0.999232,-0.77,-3.07,1.88
39,3869,0.005170,-0.009646,0.997223,-128.77,77.93,3.88
40,3979,0.020267,-0.019567,0.981727,-7235.77,-1183.07,398.88
41,4079,0.014569,-0.035781,0.956287,-10374.76,-116.06,-146.11
42,4189,0.000662,-0.059689,0.939186,-2287.76,-472.06,688.89
43,4289,0.004991,-0.097809,0.941111,-892.77,-59.07,50.88
44,4389,0.001420,-0.131913,0.943187,-13.76,29.94,18.89
45,4489,0.002596,-0.159364,0.943652,-13.75,46.95,29.90
46,4589,0.002515,-0.182715,0.944413,-0.77,2.93,-12.12
47,4699,0.003453,-0.202692,0.944730,0.24,3.94,-14.11
48,4799,0.003170,-0.219545,0.945586,1.23,5.93,10.88
49,4899,0.003260,-0.214844,0.973504,8749.25,-817.05,33.90
50,4999,0.005148,-0.204038,0.964331,16607.22,1546.92,-973.13
51,5099,0.008035,-0.143784,1.051052,2274.23,1074.93,-355.12
52,5209,0.008675,-0.121884,1.023014,116.22,185.92,156.87
53,5309,-0.005812,-0.085306,0.957580,-1751.77,-1555.07,865.88
54,5409,0.003223,-0.088986,0.952223,167.23,-23.07,1085.88
55,5519,0.005209,-0.066864,0.953640,-53.77,1.93,-43.12
56,5619,0.004461,-0.055275,0.961417,8.23,-1.07,-68.12
57,5719,0.002709,-0.046669,0.967973,-5.76,9.94,26.89
58,5819,0.003453,-0.040727,0.972794,-6.76,-8.06,-7.11
59,5929,0.003189,-0.033461,0.976746,1.24,3.94,-1.11
60,6029,0.002323,-0.028475,0.980307,5.23,-2.07,-27.12
61,6129,0.000836,-0.024036,0.983626,-3.77,1.93,21.88
62,6239,0.001953,-0.020152,0.986155,-2.77,-7.07,-6.12
63,6339,0.042013,-0.011670,0.953221,-5449.77,-1403.07,-534.12
64,6439,0.042794,-0.010410,0.922224,-10105.77,411.93,-1659.12
65,6539,0.038459,-0.116109,1.066403,-7140.77,308.93,264.88
66,6639,0.026425,-0.138991,1.064224,-354.77,-131.07,70.88
67,6749,0.047599,-0.179552,1.073980,-435.76,227.94,70.89
68,6849,0.041170,-0.199088,1.055503,38.24,19.94,0.89
69,6949,0.035596,-0.217415,1.039413,9.24,-4.06,11.89
70,7049,0.031993,-0.232572,1.026433,-6.77,4.93,2.88
71,7149,0.027759,-0.245033,1.014319,-0.76,-1.06,3.89
72,7259,0.019271,-0.303673,1.086823,6283.24,-434.06,-269.11
73,7359,0.055764,-0.288075,1.076545,13843.23,1193.93,392.88
74,7459,0.063015,-0.197802,1.087878,3716.25,585.95,-601.10
75,7569,0.043379,-0.139509,1.055817,-2081.77,407.93,-131.12
76,7669,0.034782,-0.107117,1.033436,-1677.77,-26.07,564.88
77,7769,0.035219,-0.122632,1.058632,-145.78,50.92,929.87
78,7869,0.030281,-0.099565,1.039766,-34.77,-2.07,-174.12
79,7979,0.027732,-0.085176,1.033360,-36.78,4.92,-20.13
80,8079,0.020896,-0.071591,1.027037,-8.77,19.93,-36.12
81,8179,0.017832,-0.059310,1.022413,2.25,7.95,6.90
82,8289,0.013836,-0.050630,1.019179,-2.78,9.92,-7.13
83,8389,0.012892,-0.042575,1.016301,3.22,2.92,29.87
84,8489,0.010626,-0.036387,1.013562,5.23,7.93,-31.12
85,8589,0.008644,-0.030889,1.011820,-9.76,2.94,13.89
86,8689,0.006704,-0.026673,1.009900,-5.77,1.93,-45.12
87,8799,0.005988,-0.022303,1.007919,-10.78,2.92,41.87
88,8899,0.006021,-0.018899,1.006932,-1.77,4.93,0.88
89,8999,-0.042291,-0.060848,1.107204,-5888.75,730.95,476.90
90,9099,-0.019654,-0.052926,1.041812,-8723.78,180.92,-300.13
91,9199,-0.002793,-0.097224,1.056890,-10029.76,-1611.06,23.89
92,9309,-0.006295,-0.132478,1.078568,-1200.77,87.93,-27.12
93,9409,-0.006983,-0.158233,1.056400,-286.75,146.95,45.90
94,9509,-0.003906,-0.181699,1.042464,75.23,-6.07,5.88
95,9619,-0.003745,-0.201334,1.027543,-24.77,-1.07,2.88
96,9719,-0.001977,-0.218464,1.016965,-9.77,-6.07,-4.12
97,9819,-0.001592,-0.232841,1.007278,1.22,4.92,3.87
98,9919,-0.001045,-0.245482,0.998257,-2.76,-1.06,0.89
99,10029,-0.013947,-0.269758,1.018660,12725.24,-699.06,-112.11
100,10129,-0.024474,-0.203895,0.958090,16820.23,-1002.07,-20.12
1,0,0.001022,-0.000766,0.999560,-2.77,-0.07,12.88
2,99,0.001947,-0.000721,1.000028,-4.76,0.94,-22.11
3,199,0.002091,-0.001195,0.999693,-5.78,24.92,-0.13
4,299,0.002231,-0.002148,0.998878,-12.79,-4.09,14.86
5,399,0.048713,0.077443,0.855728,-568.78,-1435.08,1699.87
6,499,0.062314,0.042356,0.872022,-8281.76,-783.06,1094.89
7,609,0.053623,-0.012261,0.902698,-11182.78,-2218.08,691.87
8,709,0.056636,-0.072674,0.942799,-2358.78,-213.08,241.87
9,809,0.051488,-0.109304,0.949328,-644.78,-78.08,38.87
10,909,0.044897,-0.142362,0.950446,-3.78,13.92,49.87
11,1009,0.039789,-0.168612,0.950206,-2.77,11.93,-10.12
12,1119,0.035007,-0.190870,0.950899,-10.78,9.92,6.87
13,1219,0.030431,-0.210099,0.951397,0.24,8.94,-8.11
14,1319,0.026504,-0.225914,0.950337,2.22,2.92,-1.13
15,1429,0.001321,-0.238203,0.951871,11622.22,199.92,-179.13
16,1529,-0.014920,-0.186759,0.917799,17918.22,-1332.08,199.87
17,1629,0.004948,-0.121810,0.838264,-1203.78,1018.92,427.87
18,1729,0.003488,-0.092787,0.865325,-331.78,-419.08,-86.13
19,1839,0.005342,-0.099923,0.877414,-417.78,-285.08,2200.87
20,1939,-0.003410,-0.093867,0.892267,20.22,40.92,448.87
21,2039,-0.005392,-0.075554,0.909873,-77.78,26.92,110.87
22,2149,-0.004128,-0.063229,0.923959,-15.76,8.94,-10.11
23,2249,-0.003201,-0.054126,0.934851,3.22,0.92,-18.13
24,2349,-0.002541,-0.045931,0.944641,-4.79,8.91,2.86
25,2449,-0.002695,-0.038287,0.953310,-3.78,-2.08,3.87
26,2549,-0.002568,-0.032651,0.960477,3.23,-0.07,3.88
27,2659,-0.001966,-0.027988,0.966863,-9.76,-7.06,10.89
28,2759,-0.001803,-0.024208,0.971961,0.22,4.92,-6.13
29,2859,-0.002250,-0.020409,0.976422,-0.79,6.91,9.86
30,2959,-0.012590,-0.002860,0.923616,-1605.76,707.94,-216.11
31,3059,0.006452,-0.018029,0.927456,-8806.77,-140.07,-1907.12
32,3169,0.009344,-0.063588,0.952857,-11368.78,-254.08,-19.13
33,3269,0.012792,-0.108850,0.978384,-2620.77,-237.07,235.88
34,3369,0.006896,-0.132766,0.974576,-85.78,9.92,-217.13
35,3479,0.005529,-0.160858,0.971889,-8.77,16.93,19.88
36,3579,0.006070,-0.184553,0.969806,-5.78,22.92,-8.13
37,3679,0.005907,-0.204511,0.966351,-2.76,-5.06,-1.11
38,3779,0.006007,-0.221237,0.963835,1.24,1.94,-11.11
39,3889,0.005432,-0.235363,0.961440,-5.78,8.92,5.87
40,3989,-0.013421,-0.245978,0.963232,11905.23,-203.07,88.88
41,4089,-0.020951,-0.191848,0.916781,17994.22,-1347.08,127.87
42,4199,-0.004427,-0.166674,0.937979,-2342.77,2011.93,118.88
43,4299,-0.012829,-0.121126,0.899728,-1129.77,-788.07,-617.12
44,4399,-0.004811,-0.123498,0.916251,-258.77,-161.07,694.88
45,4499,-0.004623,-0.115224,0.931486,-157.76,-23.06,124.89
46,4599,-0.002578,-0.093323,0.940444,18.22,-2.08,148.87
47,4709,-0.001407,-0.077197,0.948278,13.22,-5.08,-33.13
48,4809,-0.000906,-0.064699,0.955248,-4.77,11.93,-37.12
49,4909,-0.000059,-0.054625,0.962051,4.22,2.92,11.87
50,5009,-0.000842,-0.045915,0.967468,-3.79,-3.09,9.86
51,5119,-0.000700,-0.039281,0.972512,-1.77,3.93,-6.12
52,5219,-0.001020,-0.033203,0.976671,9.22,-7.08,0.87
53,5319,-0.000339,-0.028476,0.980316,2.22,2.92,9.87
54,5419,0.000331,-0.023926,0.983084,-13.78,-2.08,7.87
55,5529,0.030985,-0.025699,1.003693,-2329.78,-189.08,185.87
56,5629,0.009397,-0.038943,0.996400,-7344.76,-961.06,895.89
57,5729,0.010163,-0.066900,0.981815,-10723.77,813.93,431.88
58,5829,0.006988,-0.082313,0.939864,-2310.78,-694.08,293.87
59,5939,0.007932,-0.124895,0.957013,-541.79,-109.09,-55.14
60,6039,0.007197,-0.154222,0.959451,-24.76,103.94,87.89
61,6139,0.005712,-0.179114,0.956688,2.23,6.93,-15.12
62,6249,0.005181,-0.199174,0.955732,-3.78,-1.08,-3.13
63,6349,0.004859,-0.216884,0.954498,-3.77,-0.07,6.88
64,6449,0.005079,-0.231681,0.953778,-5.79,10.91,-6.14
65,6549,-0.007698,-0.204707,0.915117,12755.23,1458.93,-506.12
66,6649,-0.012333,-0.231072,0.970842,14702.23,428.93,472.88
67,6759,-0.007831,-0.181247,0.917427,703.21,-187.09,66.86
68,6859,-0.014607,-0.169841,0.968392,-1287.78,73.92,-365.13
69,6959,-0.034154,-0.149305,0.963794,-1412.79,-291.09,953.86
70,7059,-0.038006,-0.139870,0.965544,355.23,-31.07,250.88
71,7169,-0.035787,-0.112423,0.968514,-29.78,-9.08,51.87
72,7269,-0.029525,-0.095263,0.972430,29.23,1.93,3.88
73,7369,-0.025264,-0.081959,0.977316,-0.76,6.94,7.89
74,7469,-0.020452,-0.069021,0.980882,0.22,1.92,12.87
75,7579,-0.017956,-0.058903,0.983401,4.22,-5.08,-13.13
76,7679,-0.014917,-0.050229,0.986036,3.23,4.93,-5.12
77,7779,-0.012317,-0.043406,0.988313,4.22,4.92,0.87
78,7879,-0.010711,-0.036892,0.989919,-13.80,9.90,-11.15
79,7979,-0.009767,-0.032124,0.991796,-3.78,8.92,-5.13
80,8089,0.020589,-0.045521,1.011703,-2135.77,1076.93,-273.12
81,8189,0.018028,-0.030963,0.976017,-9136.78,42.92,-752.13
82,8299,0.013215,-0.072147,0.993035,-11023.78,-629.08,-353.13
83,8399,0.022161,-0.115283,1.007592,-2838.77,-153.07,128.88
84,8499,0.019328,-0.148249,1.006214,-268.77,29.93,-30.12
85,8599,0.014320,-0.176070,0.995851,108.21,16.91,-33.14
86,8699,0.013981,-0.197722,0.985706,20.22,12.92,-8.13
87,8809,0.013876,-0.216638,0.981257,-9.79,4.91,2.86
88,8909,0.011590,-0.232333,0.976194,21.22,-4.08,-7.13
89,9009,0.010654,-0.245673,0.970975,-8.78,0.92,5.87
90,9109,0.032142,-0.268951,1.004698,12343.24,106.94,4.89
91,9209,-0.004011,-0.217875,0.947871,13486.23,171.93,-605.12
92,9319,-0.009126,-0.212876,0.964020,1151.20,-5.10,80.85
93,9419,-0.004263,-0.158566,0.921827,-967.78,86.92,-170.13
94,9519,-0.025471,-0.145636,0.947560,-144.77,-180.07,-335.12
95,9629,-0.023247,-0.131826,0.954363,-115.78,-38.08,-143.13
96,9729,-0.019067,-0.114759,0.959468,29.22,-1.08,70.87
97,9829,-0.014874,-0.098201,0.966023,-10.77,8.93,56.88
98,9929,-0.012536,-0.083028,0.971357,-1.78,-0.08,-25.13
99,10039,-0.010623,-0.070095,0.975506,9.22,-6.08,5.87
100,10139,-0.009600,-0.059742,0.979307,-7.78,-0.08,2.87
1,0,0.000820,-0.000674,0.999944,6.22,-0.08,-14.13
2,99,0.001811,-0.000533,0.999897,4.22,7.92,13.87
3,199,0.001664,-0.001384,1.000717,-25.78,9.92,-14.13
4,299,0.003078,-0.001137,1.000169,-10.77,7.93,34.88
5,399,0.024732,0.000337,0.981722,-3404.78,-275.08,-366.13
6,499,0.031181,-0.015879,0.977084,-8466.78,20.92,-777.13
7,599,0.016430,-0.045501,0.958548,-11241.78,33.92,421.87
8,699,0.014328,-0.086133,0.968921,-2896.79,-294.09,91.86
9,799,0.008403,-0.125121,0.973563,376.22,-263.08,-119.13
10,899,0.007305,-0.153115,0.967952,-7.77,39.93,-19.12
11,999,0.008751,-0.176946,0.964811,-6.78,-10.08,14.87
12,1109,0.008826,-0.197917,0.961922,-9.78,3.92,-1.13
13,1209,0.008689,-0.216511,0.960272,-23.78,22.92,-7.13
14,1309,0.008756,-0.231053,0.957258,-15.79,2.91,18.86
15,1419,-0.018819,-0.209393,0.908261,12161.21,870.91,-642.14
16,1519,-0.013564,-0.229745,0.963347,16979.21,338.91,652.86
17,1619,-0.012320,-0.187461,0.912228,905.22,726.92,-58.13
18,1719,-0.000735,-0.169904,0.962069,-1967.79,-699.09,-388.14
19,1829,-0.007110,-0.162470,0.968124,-103.78,-192.08,150.87
20,1929,-0.009050,-0.149797,0.969608,-29.78,-42.08,19.87
21,2029,-0.013427,-0.121007,0.976235,-37.78,-16.08,143.87
22,2139,-0.008907,-0.103127,0.979982,-12.77,-0.07,6.88
23,2239,-0.007465,-0.087747,0.983057,12.23,-16.07,78.88
24,2339,-0.006532,-0.074582,0.985945,-9.79,-11.09,-2.14
25,2439,-0.004549,-0.063520,0.988217,1.20,-1.10,6.85
26,2539,-0.004511,-0.053952,0.989855,-13.79,4.91,28.86
27,2649,-0.003783,-0.045820,0.991578,4.23,-4.07,0.88
28,2749,-0.003238,-0.039164,0.992327,4.20,-0.10,-18.15
29,2849,-0.002279,-0.033689,0.993349,-0.78,-1.08,-4.13
30,2949,-0.002014,-0.029768,0.994474,-2.79,5.91,1.86
31,3049,-0.001643,-0.026820,0.995539,-2.79,1.91,-10.14
32,3159,-0.001510,-0.023526,0.997471,3.22,13.92,4.87
33,3259,0.048939,0.033125,0.916642,-7202.79,-797.09,2959.86
34,3359,0.030553,0.026364,0.893238,-9606.79,-324.09,1098.86
35,3469,0.017324,-0.046728,0.977787,-2940.79,405.91,674.86
36,3569,0.014172,-0.081793,0.949734,-714.79,-46.09,-206.14
37,3669,0.020209,-0.118063,0.941672,239.22,-188.08,25.87
38,3769,0.018438,-0.148178,0.940642,-20.79,17.91,13.86
39,3879,0.015760,-0.174105,0.941580,-9.79,9.91,-8.14
40,3979,0.015022,-0.195447,0.941919,-17.78,12.92,4.87
41,4079,0.013992,-0.213277,0.943031,1.21,22.91,14.86
42,4189,0.003046,-0.265053,1.015406,7660.22,-719.08,-386.13
43,4289,0.032248,-0.255852,1.027321,14239.21,2505.91,411.86
44,4389,0.032663,-0.229923,1.167619,3493.21,-34.09,-719.14
45,4489,0.003681,-0.164102,1.126362,-266.78,1469.92,-602.13
46,4589,0.014662,-0.139044,1.081919,277.22,-394.08,-937.13
47,4699,0.016377,-0.141512,1.071351,-11.79,107.91,459.86
48,4799,0.013716,-0.121546,1.067495,-133.78,-1.08,-56.13
49,4899,0.009239,-0.104555,1.057444,-42.76,-5.06,3.89
50,4999,0.008362,-0.087111,1.047197,1.23,-3.07,-3.12
51,5109,0.007489,-0.074335,1.040427,-9.80,-1.10,21.85
52,5209,0.006215,-0.062486,1.034508,-3.79,5.91,-0.14
53,5309,0.005939,-0.053805,1.029130,1.22,0.92,-1.13
54,5409,0.004166,-0.046098,1.024210,-1.78,1.92,-0.13
55,5519,0.003940,-0.039199,1.020980,-3.79,-2.09,-10.14
56,5619,0.003858,-0.033627,1.018052,-4.79,3.91,-7.14
57,5719,0.003239,-0.028946,1.015874,4.22,-0.08,-5.13
58,5819,0.001303,-0.025297,1.013437,-8.79,-2.09,-0.14
59,5919,-0.003931,-0.004819,0.958778,-5687.78,-1496.08,49.87
60,6029,0.000061,0.000814,0.910028,-10488.79,-313.09,-650.14
61,6129,-0.001600,-0.096076,1.043549,-6752.78,632.92,373.87
62,6239,-0.001931,-0.127200,1.003269,-808.78,-47.08,-211.13
63,6339,0.002164,-0.158288,0.999226,-268.80,-41.10,-86.15
64,6439,0.000609,-0.183651,0.990771,15.21,4.91,7.86
65,6539,0.001082,-0.204751,0.982670,-20.78,12.92,1.87
66,6639,0.001227,-0.223071,0.977321,-7.79,8.91,-12.14
67,6749,0.001332,-0.238130,0.972501,0.22,15.92,-5.13
68,6849,0.011438,-0.299014,1.047487,3209.22,-469.08,-236.13
69,6949,0.018196,-0.280014,1.047375,13264.21,-67.09,338.86
70,7049,0.031540,-0.205489,1.016263,13471.21,295.91,167.86
71,7149,0.027922,-0.154613,0.986082,-806.80,2229.90,-315.15
72,7259,0.032501,-0.130649,0.961545,-1689.79,107.91,-521.14
73,7359,0.037235,-0.130458,0.958743,-432.79,-107.09,896.86
74,7459,0.029797,-0.114109,0.964271,-88.79,3.91,3.86
75,7569,0.027045,-0.101073,0.967194,-6.78,11.92,-21.13
76,7669,0.022490,-0.085689,0.972608,2.22,8.92,-48.13
77,7769,0.019406,-0.073730,0.976863,0.22,7.92,5.87
78,7869,0.016272,-0.063162,0.980405,-10.79,5.91,-10.14
79,7979,0.014505,-0.054216,0.983270,-15.78,-12.08,13.87
80,8079,0.012857,-0.046025,0.985394,-9.77,7.93,-8.12
81,8179,0.010889,-0.039082,0.988024,5.22,0.92,-3.13
82,8289,0.008666,-0.033527,0.989947,3.22,2.92,3.87
83,8389,0.007693,-0.029228,0.991399,-7.78,5.92,21.87
84,8489,0.007890,-0.025353,0.992304,0.22,0.92,10.87
85,8589,0.006373,-0.021529,0.993201,-1.79,4.91,-15.14
86,8689,0.004425,-0.018919,0.994128,-11.79,-1.09,0.86
87,8799,0.003318,-0.016353,0.994678,-0.80,-10.10,0.85
88,8899,0.003805,-0.014319,0.996025,-1.80,10.90,2.85
89,8999,-0.022258,0.047176,0.864088,-5209.80,-193.10,-677.15
90,9099,-0.017971,0.021298,0.879823,-9354.80,-212.10,-1485.15
91,9199,-0.013961,-0.030655,0.917221,-9937.80,-2198.10,-714.15
92,9309,-0.012969,-0.096641,0.964720,-777.79,-35.09,-296.14
93,9409,-0.017198,-0.123725,0.954520,27.20,69.90,-59.15
94,9509,-0.015410,-0.152203,0.953138,19.20,-10.10,15.85
95,9619,-0.013651,-0.177582,0.952512,-8.78,0.92,-4.13
96,9719,-0.010637,-0.199062,0.951523,-11.79,-3.09,5.86
97,9819,-0.008202,-0.217118,0.951323,2.22,7.92,-13.13
98,9919,-0.006298,-0.232264,0.950878,0.22,0.92,-1.13
99,10029,-0.029911,-0.216428,0.911828,11275.22,-78.08,-284.13
100,10129,-0.027827,-0.209174,0.944499,18158.21,678.91,30.86
1,0,0.000070,-0.000088,1.000933,-13.78,6.92,9.87
2,99,0.001960,0.000038,1.000975,-3.79,7.91,-5.14
3,199,0.001003,-0.000276,1.000828,-2.78,2.92,-21.13
4,299,0.000483,-0.000854,1.000556,13.21,-7.09,20.86
5,399,0.001066,-0.001767,1.001112,-3.79,10.91,-2.14
6,499,0.032561,0.008810,0.956084,-6786.79,-1235.09,907.86
7,599,0.015735,-0.019663,0.965490,-10229.78,684.92,-855.13
8,699,0.012438,-0.104913,1.067235,-7781.79,152.91,282.86
9,799,0.008554,-0.132074,1.066780,-538.78,-145.08,104.87
10,899,0.005473,-0.162577,1.046032,-54.78,77.92,50.87
11,999,0.003404,-0.185887,1.031619,-15.79,26.91,26.86
12,1109,0.002248,-0.205627,1.020411,7.21,2.91,-1.14
13,1209,0.002274,-0.221600,1.007479,-11.79,-7.09,21.86
14,1309,0.001966,-0.234023,0.993686,13.22,-17.08,5.87
15,1419,-0.005309,-0.278751,1.037845,1670.22,-42.08,-60.13
16,1519,0.002955,-0.264675,1.027699,13672.22,-670.08,97.87
17,1619,0.008020,-0.174947,1.006222,2965.21,575.91,-391.14
18,1719,0.034956,-0.168752,1.096218,-766.78,2157.92,473.87
19,1829,0.031852,-0.161728,1.063400,-56.79,-1236.09,-64.14
20,1929,0.032271,-0.163394,1.054182,16.22,127.92,1405.87
21,2029,0.026951,-0.137984,1.042099,-82.76,29.94,-145.11
22,2139,0.023143,-0.116276,1.035984,-7.79,-4.09,-2.14
23,2239,0.019412,-0.098905,1.029634,0.23,11.93,-42.12
24,2339,0.016570,-0.083334,1.025719,2.21,-5.09,7.86
25,2439,0.015106,-0.070776,1.021787,-9.78,-3.08,-16.13
26,2539,0.012123,-0.060248,1.018243,-1.78,-2.08,4.87
27,2649,0.010740,-0.051666,1.015945,-7.80,1.90,-1.15
28,2749,0.009235,-0.044407,1.013955,-0.79,9.91,-5.14
29,2849,0.007682,-0.038018,1.012227,5.22,8.92,2.87
30,2949,0.007203,-0.032752,1.010868,-5.79,3.91,8.86
31,3049,0.006156,-0.028019,1.009054,-13.78,3.92,2.87
32,3159,0.004643,-0.024106,1.007237,0.20,-6.10,-1.15
33,3259,-0.017737,-0.021311,0.960557,-605.79,-560.09,150.86
34,3359,-0.045604,-0.043618,0.960540,-7186.79,-713.09,-1897.14
35,3469,-0.045286,-0.065143,0.943331,-10310.80,-231.10,-1454.15
36,3569,-0.048220,-0.089536,0.929839,-1932.81,-286.11,759.84
37,3669,-0.036999,-0.118931,0.927966,-1085.78,-184.08,9.87
38,3769,-0.030830,-0.149300,0.932783,46.20,69.90,2.85
39,3879,-0.024415,-0.174528,0.936913,-16.80,22.90,5.85
40,3979,-0.020628,-0.196045,0.938117,2.21,7.91,-2.14
41,4079,-0.016769,-0.213840,0.939891,-18.80,2.90,1.85
42,4189,-0.013195,-0.229717,0.941399,-0.79,-7.09,-1.14
43,4289,-0.000124,-0.241820,0.981499,8575.20,-830.10,79.85
44,4389,0.002821,-0.230813,0.976674,16202.21,1504.91,-1008.14
45,4489,-0.007658,-0.139865,0.990023,2184.22,180.92,-387.13
46,4589,-0.015906,-0.114249,0.964181,-2015.78,-817.08,-370.13
47,4699,-0.016783,-0.108498,0.954794,-626.79,-912.09,98.86
48,4799,-0.011907,-0.115108,0.959047,-37.78,-105.08,559.87
49,4899,-0.008092,-0.093848,0.964970,-49.79,-54.09,-101.14
50,4999,-0.007029,-0.080720,0.969967,-26.80,-1.10,-15.15
51,5109,-0.004458,-0.068847,0.974654,18.21,2.91,3.86
52,5209,-0.004013,-0.059854,0.979223,-4.79,-1.09,-17.14
53,5309,-0.003213,-0.050396,0.982046,-13.78,-3.08,20.87
54,5409,-0.002185,-0.043566,0.984903,3.21,-7.09,-15.14
55,5519,-0.002081,-0.036717,0.987386,-5.80,2.90,11.85
56,5619,-0.001150,-0.031610,0.989552,1.21,-7.09,4.86
57,5719,-0.000505,-0.026536,0.990862,-2.79,8.91,-0.14
58,5819,-0.000214,-0.023230,0.992597,-2.80,6.90,-1.15
59,5919,-0.000716,-0.020218,0.993670,-2.77,5.93,6.88
60,6029,-0.015645,0.025316,0.862948,-3677.78,-40.08,-588.13
61,6129,-0.018263,0.012404,0.883633,-9057.77,-87.07,-1322.12
62,6239,-0.008185,-0.044257,0.927912,-10260.79,-1152.09,-581.14
63,6339,-0.009121,-0.102252,0.978421,-2067.79,-1.09,9.86
64,6439,-0.006109,-0.129557,0.961460,-432.80,63.90,80.85
65,6539,-0.005453,-0.158900,0.960649,-6.79,40.91,36.86
66,6639,-0.003082,-0.182193,0.958915,-12.78,15.92,-8.13
67,6749,-0.002055,-0.202633,0.958668,-17.78,5.92,-13.13
68,6849,-0.001329,-0.219641,0.956627,-8.78,10.92,4.87
69,6949,-0.000126,-0.234263,0.955478,1.22,2.92,2.87
70,7049,-0.034022,-0.216607,0.918448,11421.21,-80.09,-395.14
71,7159,-0.049119,-0.175232,0.893491,17839.22,-963.08,66.87
72,7259,-0.026392,-0.123877,0.828497,-1089.79,709.91,97.86
73,7359,-0.034192,-0.088740,0.845158,-431.79,-189.09,-712.14
74,7459,-0.034614,-0.097105,0.880761,-1041.77,-135.07,931.88
75,7569,-0.034077,-0.087847,0.900038,-51.79,-23.09,-45.14
76,7669,-0.025087,-0.072323,0.915049,-4.79,4.91,64.86
77,7769,-0.021510,-0.062881,0.927333,-3.77,2.93,-12.12
78,7869,-0.017884,-0.052457,0.937793,1.21,-5.09,23.86
79,7979,-0.015572,-0.045208,0.946775,-14.79,3.91,-20.14
80,8079,-0.013752,-0.038681,0.955215,-0.80,0.90,-5.15
81,8179,-0.012151,-0.033407,0.962335,-12.79,2.91,3.86
82,8289,-0.009746,-0.028466,0.968258,-4.78,-8.08,-16.13
83,8389,-0.008598,-0.024138,0.973257,-11.77,-1.07,10.88
84,8489,-0.008520,-0.020514,0.976828,-15.78,4.92,-20.13
85,8589,-0.023084,-0.028109,0.969774,-5533.78,-1212.08,645.87
86,8689,-0.005288,-0.033100,0.941257,-9354.78,-48.08,-247.13
87,8799,0.009418,-0.100861,1.004523,-9849.79,694.91,632.86
88,8899,0.006902,-0.149578,1.037992,-1046.81,-21.11,21.84
89,8999,0.011887,-0.176010,1.028465,-213.79,209.91,-1.14
90,9099,0.009789,-0.196975,1.016577,-18.80,15.90,9.85
91,9209,0.008501,-0.214667,1.006106,-7.77,6.93,10.88
92,9309,0.007624,-0.229888,0.997975,2.20,-5.10,0.85
93,9409,0.007173,-0.243028,0.991173,2.21,-2.09,-1.14
94,9509,0.006771,-0.253922,0.984677,-6.79,20.91,9.86
95,9619,-0.011772,-0.259831,0.982928,11599.21,-362.09,-53.14
96,9719,-0.027093,-0.194907,0.932222,17725.21,-713.09,-76.14
97,9819,-0.028178,-0.122217,0.847851,-188.78,-421.08,31.87
98,9919,-0.013957,-0.107232,0.892791,649.21,1311.91,-877.14
99,10029,-0.011373,-0.109034,0.908597,-265.78,-176.08,576.87
100,10129,-0.009670,-0.097125,0.923332,-178.79,-29.09,-45.14
1,0,-0.000187,0.000204,0.999614,-0.79,-3.09,18.86
2,99,0.000826,-0.000135,0.999982,8.21,14.91,-1.14
3,199,-0.000602,-0.001100,1.000863,-7.80,-6.10,-11.15
4,299,-0.005459,-0.001518,0.999652,-11.79,9.91,-17.14
5,399,-0.004735,-0.002222,0.999447,-0.80,-9.10,87.85
6,499,-0.007397,-0.012762,1.026702,-210.78,41.92,17.87
7,599,-0.019237,-0.011394,1.017403,89.20,-28.10,-203.15
8,699,-0.028056,-0.014004,1.020358,-7.81,18.89,-92.16
9,799,-0.021599,-0.014116,1.020471,-83.79,71.91,-41.14
10,899,-0.013053,-0.009926,1.016923,-20.80,17.90,-164.15
11,999,-0.007199,-0.006970,1.012241,31.21,-20.09,83.86
12,1109,-0.005647,-0.005811,1.010514,3.21,-6.09,-31.14
13,1209,-0.005407,-0.006090,1.008698,24.21,3.91,-42.14
14,1309,0.009627,-0.003929,0.974122,-6184.79,-1609.09,1158.86
15,1419,0.001386,-0.012675,0.946050,-10319.80,-103.10,-1089.15
16,1519,-0.000181,-0.109666,1.065232,-5137.79,342.91,302.86
17,1619,-0.001640,-0.141278,1.034389,-557.78,-107.08,-86.13
18,1719,-0.002130,-0.167691,1.021448,-73.78,211.92,-5.13
19,1829,-0.002327,-0.190545,1.011217,-33.79,75.91,46.86
20,1929,-0.000663,-0.209000,1.002905,10.21,9.91,1.86
21,2029,0.002619,-0.224687,0.995382,-6.78,3.92,9.87
22,2139,0.004383,-0.237966,0.988603,2.20,13.90,-6.15
23,2239,-0.001844,-0.278257,1.027225,1326.22,216.92,16.87
24,2339,0.013590,-0.269126,1.023342,13557.21,-806.09,106.86
25,2439,0.019714,-0.179829,0.992795,4009.20,559.90,-329.15
26,2539,0.042772,-0.174550,1.076400,-910.80,1642.90,383.85
27,2649,0.043714,-0.167132,1.057175,-926.78,-1047.08,-21.13
28,2749,0.043305,-0.170441,1.064766,-65.79,-119.09,1274.86
29,2849,0.035249,-0.143480,1.049685,-82.80,-35.10,85.85
30,2949,0.027962,-0.125581,1.042433,9.20,10.90,-69.15
31,3059,0.023910,-0.104727,1.036250,-4.80,10.90,-30.15
32,3159,0.021968,-0.089125,1.030958,3.21,1.91,-7.14
33,3259,0.016930,-0.076266,1.025983,2.21,-1.09,22.86
34,3359,0.016236,-0.064420,1.021865,8.21,-3.09,21.86
35,3469,0.010318,-0.055780,1.018712,-1.79,4.91,0.86
