sample_num,timestamp_ms,acc_x(g),acc_y(g),acc_z(g),gyro_x(LSB),gyro_y(LSB),gyro_z(LSB)
1,0,-0.001503,-0.000598,1.000584,9.96,-16.41,-14.64
2,19,-0.000895,-0.000869,1.000768,-12.05,5.58,15.35
3,39,-0.000763,-0.000128,1.000999,-18.04,13.59,9.36
4,59,-0.002811,0.000501,1.000371,-12.05,6.58,-9.65
5,79,-0.004112,0.000139,0.999837,15.96,-3.41,-5.64
6,99,-0.003131,0.000399,0.999438,12.97,-15.40,-4.63
7,119,-0.002132,0.000748,0.999868,3.96,-4.41,11.36
8,139,-0.003297,0.000990,0.999757,-4.05,2.58,19.35
9,159,-0.004526,0.000462,1.000212,3.95,-7.42,-9.65
10,189,-0.003373,0.000472,0.999830,12.96,-5.41,-7.64
11,209,-0.002887,0.000664,0.999597,-10.06,-3.43,14.34
12,239,-0.004196,0.000698,0.999911,3.93,0.56,-1.67
13,259,-0.003862,0.000617,0.999922,11.94,-13.43,-8.66
14,279,-0.003724,0.000512,0.999785,-0.03,-2.40,-0.63
15,299,-0.004156,0.000057,1.000163,-5.04,3.59,2.36
16,319,-0.004834,-0.000257,1.000063,-0.04,-8.41,9.36
17,349,-0.004093,-0.000103,0.999905,1.95,-0.42,2.35
18,369,-0.004085,-0.000044,0.999203,-8.04,9.59,-3.64
19,389,-0.004682,-0.000361,0.999283,-3.05,-2.42,-1.65
20,409,-0.005117,-0.000429,0.998949,2.97,-2.40,-1.63
21,429,-0.019366,0.007057,1.011959,359.95,-139.42,33.35
22,459,-0.029390,0.000163,1.005054,4165.95,252.58,787.35
23,479,-0.013961,0.013346,1.008834,5848.95,-823.42,589.35
24,499,-0.041129,-0.003262,1.046142,5819.95,1342.58,731.35
25,529,-0.056531,-0.014100,1.076828,6138.96,453.59,331.36
26,549,-0.049683,-0.004015,1.042505,10582.95,763.58,1178.35
27,569,-0.061514,0.013457,0.999744,9124.93,605.56,1836.33
28,589,-0.068897,-0.010144,0.989343,10699.95,1283.58,2488.35
29,669,-0.051038,0.002572,1.004562,14335.96,136.59,2893.36
30,689,-0.034944,0.050623,0.980090,11589.94,1822.57,2831.34
31,709,-0.051897,0.049737,0.985693,12752.95,1559.58,2642.35
32,739,-0.071305,0.156925,0.945283,8680.96,-467.41,2069.36
33,759,-0.049954,0.213592,0.961966,5295.95,650.58,1495.35
34,779,-0.029188,0.263096,0.940825,2340.95,203.58,534.35
35,799,-0.021259,0.296001,0.928001,1432.96,150.59,22.36
36,819,-0.021057,0.332393,0.923198,1285.95,180.58,51.35
37,849,-0.018487,0.357723,0.918127,479.95,136.58,-25.65
38,869,-0.016081,0.363342,0.915409,191.96,20.59,-82.64
39,889,-0.011913,0.369802,0.915004,127.96,43.59,35.36
40,909,-0.008883,0.376594,0.911747,354.94,9.57,64.34
41,929,-0.007626,0.383227,0.909748,-138.06,-5.43,-50.66
42,959,-0.005806,0.390166,0.907097,-8.03,-5.40,4.37
43,979,-0.004810,0.391394,0.907664,70.94,1.57,1.34
44,999,-0.004585,0.393774,0.907394,-61.05,-0.42,-26.65
45,1029,-0.003807,0.396970,0.906726,-15.05,-2.42,2.35
46,1049,-0.002084,0.398020,0.906561,37.97,4.60,-3.63
47,1069,-0.001316,0.398894,0.906402,-28.06,-5.43,-2.66
48,1089,-0.000699,0.400443,0.905809,37.96,0.59,8.36
49,1109,0.000008,0.400643,0.905873,-14.05,-0.42,-2.65
50,1139,0.000334,0.401856,0.905195,-9.05,3.58,4.35
1,0,0.003174,0.055686,0.985947,227.70,11.95,-4.15
2,98,0.003473,0.109043,0.973305,-13.32,3.93,5.83
3,198,0.003196,0.153481,0.963018,-0.31,0.94,-1.16
4,298,0.003547,0.191198,0.954768,0.69,-3.06,-8.16
5,408,0.003405,0.223020,0.947756,-2.31,0.94,2.84
6,508,0.003817,0.250179,0.941722,0.70,-3.05,2.85
7,608,-0.001657,0.262771,0.857492,-6730.31,430.94,-113.16
8,718,-0.009440,0.253151,0.899935,-9006.30,-888.05,-785.15
9,818,-0.017448,0.254183,0.909094,-984.31,351.94,-136.16
10,928,-0.012041,0.248780,0.918363,-230.30,619.95,-115.15
11,1028,-0.008672,0.210423,0.918221,-411.30,393.95,224.85
12,1138,0.012667,0.209991,0.858372,-3067.31,1034.94,-974.16
13,1238,0.013720,0.183897,0.867851,-5583.32,-993.07,-948.17
14,1338,0.011339,0.158513,0.883416,159.68,3.93,110.83
15,1498,0.048444,0.122435,0.904337,3161.70,347.95,1324.85
16,1598,0.036222,0.148349,0.945759,6152.69,-811.06,1127.84
17,1708,0.034604,0.152302,0.945170,-88.30,-12.05,48.85
18,1808,0.036542,0.173662,0.951371,-366.31,-90.06,-118.16
19,1918,0.046540,0.176016,0.934578,-3540.30,1535.95,-513.15
20,2018,0.022353,0.196310,0.906425,-2977.29,2477.96,-1241.14
21,2128,0.009980,0.179208,0.908001,-2894.30,-169.05,-903.15
22,2238,0.003509,0.136584,0.848989,3444.71,-950.04,201.86
23,2338,0.002220,0.115752,0.830286,4095.70,1017.95,676.85
24,2438,0.003926,0.173503,0.840738,4740.71,-1341.04,1976.86
25,2548,0.009056,0.173683,0.859015,-55.31,-231.06,116.84
26,2648,0.012483,0.177774,0.880080,14.71,-8.04,14.86
27,2758,0.015415,0.198298,0.797186,-2535.30,1878.95,-389.15
28,2858,0.037060,0.173006,0.840820,-3140.28,2794.97,-1197.13
29,2968,0.016932,0.143434,0.873001,-3447.30,71.95,-1307.15
30,3068,0.007899,0.105132,0.891199,1653.71,411.96,384.86
31,3178,0.017469,0.094200,0.832437,2358.71,1371.96,523.86
32,3288,0.023680,0.152510,0.825757,4244.68,-1415.07,-145.17
33,3388,0.029729,0.163658,0.839268,492.71,1044.96,-368.14
34,3488,0.030019,0.173482,0.859450,158.70,55.95,-33.15
35,3648,0.001353,0.191409,0.897534,-4717.30,170.95,-749.15
36,3748,0.024136,0.171472,0.876512,-5048.29,965.96,-949.14
37,3858,0.025979,0.143082,0.895209,-1686.29,-33.04,-797.14
38,3958,0.016211,0.122154,0.795983,2883.69,-1443.06,200.84
39,4068,-0.006374,0.090028,0.839248,6508.70,-2284.05,573.85
40,4168,0.010775,0.150832,0.878989,2565.70,-1621.05,1072.85
41,4278,0.002738,0.165473,0.893432,-176.30,-706.05,181.85
42,4388,0.021413,0.202710,0.981021,-1441.31,885.94,120.84
43,4488,0.005116,0.189153,1.013375,-3075.29,681.96,-791.14
44,4588,0.042477,0.171019,0.932149,-6540.31,2252.94,-1582.16
45,4698,0.040488,0.138083,0.944936,-25.29,-86.04,-237.14
46,4798,0.023893,0.117557,0.828327,2825.70,-1173.05,116.85
47,4908,0.002737,0.100495,0.841855,4244.70,-3009.05,123.85
48,5008,0.009602,0.156341,0.873515,2461.70,-237.05,389.85
49,5118,0.013936,0.171053,0.892076,284.71,-269.04,15.86
50,5218,0.016485,0.224409,1.005026,-301.29,14.96,98.86
51,5328,-0.009546,0.223857,1.038138,-5666.29,523.96,-880.14
52,5438,-0.008401,0.222838,0.968285,-6394.28,1060.97,-1113.13
53,5538,0.001197,0.186084,0.961937,788.70,-76.05,-321.15
54,5638,-0.008882,0.141805,0.894578,3272.71,-735.04,172.86
55,5798,0.007087,0.186292,0.915802,9765.71,368.96,729.86
56,5898,0.016743,0.209768,0.943584,349.71,-127.04,90.86
57,6008,0.014512,0.214616,0.951799,235.70,396.95,-47.15
58,6108,0.027174,0.269805,1.011755,-996.29,-306.04,395.86
59,6218,0.020651,0.216704,1.086008,-3608.29,29.96,-722.14
60,6318,0.031183,0.222599,0.985665,-6734.29,1813.96,-1535.14
61,6428,0.021678,0.184892,0.982240,-146.30,-376.05,-390.15
62,6538,-0.018701,0.173422,0.976600,1164.71,-3009.04,85.86
63,6638,-0.008803,0.164441,1.003593,7620.71,836.96,261.86
64,6738,-0.011212,0.201503,0.931524,2423.70,-258.05,158.85
65,6848,0.001188,0.208287,0.936952,828.71,1992.96,-433.14
66,6948,-0.014547,0.209769,0.942024,-2181.29,901.96,-509.14
67,7058,0.016243,0.196343,0.893766,-3593.29,-314.04,-865.14
68,7158,0.002314,0.177919,0.912841,-7689.28,-130.03,-774.13
69,7268,0.002029,0.135158,0.929129,429.71,111.96,69.86
70,7368,0.039469,0.132283,0.930760,2102.71,-2385.04,1799.86
71,7478,0.031688,0.148993,0.983874,5928.71,-1266.04,961.86
72,7588,0.028992,0.156933,0.973924,-244.29,-170.04,33.86
73,7688,0.026078,0.164964,0.977424,15.71,54.96,-15.14
74,7788,0.030834,0.144014,0.975290,-664.30,964.95,-140.15
75,7948,0.042933,0.120365,0.985872,-6134.29,270.96,-1171.14
76,8048,0.005335,0.090394,0.991956,-82.29,-181.04,-1770.14
77,8158,0.004212,0.113056,0.977186,-4955.31,181.94,-488.16
78,8258,0.008640,0.093007,0.992904,-2943.29,-465.04,-1343.14
79,8368,0.004842,0.073439,0.991652,-54.29,-14.04,131.86
80,8468,0.005918,0.062702,0.992090,-2.27,-3.02,9.88
81,8578,0.001888,0.052696,0.993579,-5.29,-15.04,-4.14
82,8688,0.003058,0.044521,0.994734,0.71,-5.04,-22.14
83,8788,0.000573,0.037041,0.995350,-5.30,9.95,8.85
84,8888,0.001116,0.031269,0.995910,-4.30,-1.05,-5.15
85,8998,-0.000052,0.026362,0.996185,-7.29,-12.04,9.86
86,9098,-0.000184,0.022357,0.997078,0.71,7.96,-7.14
87,9208,-0.000809,0.018348,0.997599,5.70,-4.05,15.85
88,9308,-0.000955,0.015032,0.998060,-5.28,-8.03,-10.13
89,9408,-0.001739,0.012543,0.998049,-7.28,8.97,-2.13
90,9518,-0.001965,0.010519,0.998571,-4.28,-2.03,-1.13
91,9618,-0.002323,0.008909,0.999326,-8.29,-0.04,1.86
92,9728,-0.002608,0.007100,0.999546,9.72,5.97,-3.13
93,9828,-0.003071,0.005472,1.000173,3.72,-6.03,7.87
94,9928,-0.003079,0.004307,1.000248,-6.29,1.96,3.86
95,10038,-0.003434,0.003482,1.000678,7.72,1.97,-3.13
96,10138,-0.003407,0.002194,1.000750,-5.29,-8.04,4.86
97,10298,-0.003878,0.001503,1.000867,0.71,3.96,-8.14
98,10398,-0.003527,0.000696,1.000655,-0.28,10.97,-7.13
99,10498,-0.003174,0.000321,1.000529,-3.28,-3.03,-2.13
100,10608,-0.003277,0.000038,1.000606,-2.29,-2.04,-6.14
1,0,0.000666,0.000187,1.000046,0.70,-2.05,2.85
2,100,0.000481,-0.000130,1.000378,2.71,4.96,-8.14
3,200,0.000104,-0.000162,1.000147,-1.30,0.95,-6.15
4,300,-0.000912,0.000086,1.000354,2.71,5.96,-5.14
5,460,-0.001593,-0.000161,1.000768,-6.29,3.96,-3.14
6,560,-0.000669,-0.000463,1.000754,-2.28,4.97,6.87
7,660,-0.001496,-0.000481,1.000193,-1.28,2.97,-5.13
8,770,-0.001246,-0.001046,1.000301,-6.29,2.96,-11.14
9,870,-0.001236,-0.001288,0.999789,-15.30,1.95,6.85
10,980,-0.001557,-0.001329,1.000031,-3.29,3.96,-10.14
11,1080,-0.001646,-0.001199,0.999999,5.71,-2.04,-14.14
12,1190,-0.002637,-0.001454,0.999753,-0.27,-0.02,10.88
13,1290,-0.002528,-0.001361,0.999616,-1.29,12.96,0.86
14,1390,-0.003075,-0.001555,1.000251,1.72,8.97,-1.13
15,1500,-0.003431,-0.001391,0.999929,-5.28,-3.03,-1.13
16,1600,-0.003441,-0.001435,1.000480,-0.29,-1.04,1.86
17,1710,-0.003009,-0.001637,1.000747,7.72,0.97,6.87
18,1810,-0.002222,-0.001296,1.001047,-9.29,7.96,-6.14
19,1910,-0.003035,-0.001427,1.001760,-0.28,7.97,-8.13
20,2020,-0.003049,-0.001740,1.002073,0.72,-3.03,0.87
21,2120,-0.003025,-0.001787,1.001332,-3.30,7.95,-7.15
22,2230,-0.002564,-0.001570,1.001416,-3.29,0.96,-10.14
23,2330,-0.002941,-0.001623,1.001103,0.72,-3.03,-5.13
24,2430,-0.002622,-0.002383,1.000727,6.70,-1.05,11.85
25,2590,-0.002515,-0.002370,1.000774,0.71,-4.04,2.86
26,2690,-0.003376,-0.002212,1.001052,-2.29,-7.04,6.86
27,2800,-0.002716,-0.002499,1.001160,-1.29,2.96,-0.14
28,2900,-0.002650,-0.002230,1.000940,-0.29,8.96,-9.14
29,3000,-0.002960,-0.002185,1.000790,0.71,0.96,-0.14
30,3110,-0.003205,-0.002549,1.000882,0.71,13.96,-5.14
31,3210,-0.003011,-0.002456,1.000796,5.71,-6.04,-1.14
32,3320,-0.002937,-0.002303,1.000430,-4.28,-8.03,3.87
33,3420,-0.003021,-0.002009,1.000081,5.71,-3.04,-19.14
34,3520,-0.003952,-0.002052,1.000115,-4.29,1.96,1.86
35,3630,-0.003755,-0.001520,1.000437,-6.28,1.97,-8.13
36,3730,-0.003314,-0.001929,1.000692,-3.29,-7.04,-1.14
37,3840,-0.001510,-0.002332,1.001348,8.70,9.95,-1.15
38,3940,-0.002888,-0.002765,1.001045,6.72,11.97,-32.13
39,4040,-0.003931,-0.002933,1.000806,0.70,-4.05,22.85
40,4150,-0.004488,-0.002764,1.000621,4.71,-4.04,0.86
41,4250,-0.003406,-0.003206,1.001032,-16.31,-6.06,12.84
42,4360,0.000114,0.005591,0.995082,7046.70,553.95,-358.15
43,4460,0.006805,-0.021593,0.999106,10792.70,-262.05,1523.85
44,4560,0.000591,0.010288,0.977643,12297.71,671.96,1490.86
45,4720,-0.001890,0.081789,0.958045,269.71,141.96,-239.14
46,4820,-0.003596,0.130242,0.949497,4.69,1.94,-18.16
47,4930,0.000465,0.171281,0.942854,-1.30,-6.05,21.85
48,5030,0.002691,0.206255,0.936915,6.71,-1.04,-6.14
49,5140,0.004546,0.235855,0.931977,-12.30,7.95,-0.15
50,5240,0.006379,0.260851,0.927797,6.71,-6.04,-15.14
51,5340,0.006491,0.282499,0.916005,-236.31,-92.06,-20.16
52,5450,-0.015570,0.257780,0.891205,-9321.30,-1600.05,-443.15
53,5550,-0.007167,0.263758,0.978597,-3711.29,811.96,-1150.14
54,5650,-0.002808,0.285373,0.957866,395.71,1401.96,-281.14
55,5760,-0.027704,0.291460,0.979741,-887.31,-658.06,63.84
56,5860,-0.022462,0.264590,0.978065,-3702.29,1348.96,-212.14
57,5970,-0.042596,0.286759,0.921837,-3909.28,-700.03,-617.13
58,6070,-0.037738,0.257848,0.921046,-2272.29,-111.04,-701.14
59,6180,-0.037033,0.222269,0.931727,214.71,-145.04,0.86
60,6280,-0.001533,0.194591,0.942362,2030.71,-1840.04,1089.86
61,6390,0.006504,0.214094,0.974088,5860.71,-991.04,906.86
62,6500,0.008025,0.211793,0.964141,-226.29,-389.04,40.86
63,6600,0.006736,0.213884,0.970573,-35.30,611.95,-178.15
64,6700,0.021974,0.226611,0.868484,-269.28,1372.97,-84.13
65,6810,0.041390,0.194674,0.919367,-3307.29,2236.96,-806.14
66,6910,0.033686,0.158116,0.924147,-5732.30,57.95,-1707.15
67,7070,0.022451,0.144015,0.890490,3916.70,1078.95,792.85
68,7170,0.059794,0.110899,1.023619,8333.71,-2746.04,1290.86
69,7280,-0.040281,0.176684,0.978191,-360.29,-5569.04,222.86
70,7380,-0.034068,0.182668,0.979201,-1350.30,-868.05,132.85
71,7490,-0.024575,0.227397,1.057806,1575.71,-5627.04,2009.86
72,7600,0.018962,0.267229,1.013897,-3997.28,435.97,-475.13
73,7700,0.040643,0.220154,0.993438,-7760.28,3654.97,-2786.13
74,7800,0.026973,0.166737,0.997618,280.72,-105.03,340.87
75,7910,-0.015683,0.176319,0.944664,2623.71,-164.04,-170.14
76,8010,0.007403,0.173093,1.037074,10563.72,372.97,1012.87
77,8120,0.010713,0.191792,1.026670,281.71,-35.04,-48.14
78,8220,0.031232,0.203879,1.020390,-36.28,150.97,-10.13
79,8330,0.038437,0.247605,1.114259,-265.29,-302.04,357.86
80,8430,0.031305,0.300373,1.069352,-3294.28,1593.97,-935.13
81,8540,0.038445,0.277037,1.002105,-4738.29,1417.96,-1035.14
82,8650,0.025471,0.229315,0.997752,6.71,74.96,-895.14
83,8750,-0.002312,0.183239,0.922549,2791.71,-824.04,217.86
84,8850,0.031403,0.152992,0.933590,2635.70,-277.05,2135.85
85,8960,0.031131,0.194757,0.967255,4462.71,-2066.04,1300.86
86,9060,0.028683,0.201875,0.963570,207.71,-454.04,-25.14
87,9220,0.043412,0.203330,0.883387,-148.30,1259.95,-70.15
88,9320,0.051519,0.210206,0.810910,-4547.29,1073.96,-1000.14
89,9430,0.033984,0.183623,0.811854,-6301.27,-180.02,-1832.12
90,9530,0.025524,0.161064,0.841275,-246.28,-21.03,178.87
91,9640,-0.010048,0.145478,0.867419,2139.72,-3265.03,959.87
92,9750,-0.006446,0.182840,0.893981,6456.73,-714.02,584.88
93,9850,0.003335,0.201103,0.909618,702.71,67.96,-52.14
94,9950,-0.004593,0.207983,0.920383,81.71,224.96,-82.14
95,10060,0.016392,0.258821,0.986077,-997.27,-44.02,337.88
96,10160,-0.003125,0.262245,1.013388,-5896.28,1097.97,-754.13
97,10270,0.011852,0.260339,0.925659,-6498.29,2315.96,-1027.14
98,10370,0.026049,0.215762,0.938505,743.73,-17.02,-172.12
99,10480,-0.009328,0.194077,0.947299,2266.71,-2981.04,1224.86
100,10580,0.008100,0.239255,0.951551,9902.71,-44.04,1173.86
1,0,0.009492,0.081431,0.977890,2082.72,158.97,-308.13
2,96,0.010437,0.131915,0.969332,139.71,18.96,86.86
3,196,0.007193,0.171769,0.960337,-20.30,1.95,-13.15
4,296,0.007274,0.207805,0.950182,-21.31,-4.06,6.84
5,406,0.004596,0.238308,0.943529,-15.29,3.96,-7.14
6,506,0.003382,0.264089,0.937653,-11.30,-5.05,1.85
7,616,0.002680,0.285838,0.932677,-3.29,-7.04,6.86
8,716,0.007430,0.273564,0.851104,-5229.29,-425.04,-152.14
9,816,0.028881,0.268714,0.836808,-9008.31,-2211.06,341.84
10,926,0.033381,0.277977,0.864281,-1454.30,19.95,-232.15
11,1026,0.027227,0.276879,0.879301,-141.29,1121.96,-293.14
12,1196,0.031115,0.255236,0.925852,-2871.29,1524.96,107.86
13,1296,-0.006688,0.253740,0.940517,-2909.30,524.95,-364.15
14,1396,0.000272,0.198068,0.967649,-3131.30,91.95,-448.15
15,1506,-0.000202,0.183358,0.975953,31.69,1.94,34.84
16,1606,-0.010840,0.165178,0.982463,2319.69,-4124.06,1399.84
17,1716,-0.020707,0.166534,1.045234,5888.70,-1453.05,787.85
18,1816,0.014852,0.172466,1.064642,-850.31,-160.06,-62.16
19,1926,0.014425,0.179577,1.054534,-212.29,893.96,-267.14
20,2026,0.014868,0.170991,1.077582,-3260.30,1463.95,-218.15
21,2136,0.031376,0.187479,0.963598,-738.30,246.95,-329.15
22,2246,0.020926,0.165916,0.977124,-6477.30,268.95,-937.15
23,2346,0.013729,0.129039,0.982469,104.69,-38.06,-202.16
24,2446,-0.041517,0.131146,0.954566,2325.69,-2354.06,1458.84
25,2556,-0.043907,0.188602,0.999256,8235.70,2047.95,1034.85
26,2656,-0.057108,0.221308,0.980188,1737.70,3803.95,-836.15
27,2766,-0.052015,0.221532,0.978206,181.69,33.94,-12.16
28,2866,-0.044298,0.193249,0.945413,-919.31,-627.06,142.84
29,2976,-0.025837,0.188051,0.908310,-3118.30,1470.95,-443.15
30,3076,-0.023585,0.172005,0.911031,-5726.31,-1400.06,-149.16
31,3186,-0.017514,0.151939,0.929403,-145.30,-12.05,-17.15
32,3346,-0.046851,0.139259,0.882891,4721.69,1381.94,1532.84
33,3446,-0.013322,0.199014,0.890963,4707.69,-843.06,833.84
34,3546,-0.000496,0.198627,0.910111,338.69,1512.94,-311.16
35,3656,-0.015906,0.214979,1.041853,-1499.31,-2049.06,466.84
36,3756,-0.007801,0.203500,1.102180,-321.29,1489.96,-70.14
37,3866,0.001853,0.176201,1.082797,-7204.32,-440.07,-405.17
38,3966,-0.002978,0.168835,1.075293,-2863.32,-279.07,-525.17
39,4076,-0.004686,0.143221,0.931513,3981.70,-1225.05,543.85
40,4176,-0.017435,0.149665,0.869945,4256.69,1363.94,1568.84
41,4286,-0.006446,0.188303,0.890799,2129.69,-816.06,218.84
42,4396,0.002511,0.204171,0.895030,72.70,1414.95,-346.15
43,4496,0.023234,0.247267,0.983111,-588.31,-162.06,280.84
44,4596,0.016807,0.294171,0.949692,-4342.30,982.95,-477.15
45,4706,0.028044,0.271143,0.890066,-4764.31,2072.94,-161.16
46,4806,0.030234,0.223810,0.903141,-1017.31,11.94,-238.16
47,4916,0.049490,0.206263,0.784469,2428.68,-1426.07,622.83
48,5016,0.008179,0.184812,0.796575,3810.68,-3458.07,1248.83
49,5126,0.011591,0.221840,0.828178,2321.69,-1214.06,362.84
50,5226,0.014509,0.226745,0.850280,172.70,1502.95,-454.15
51,5336,0.014482,0.250470,0.996563,-333.29,-797.04,393.86
52,5496,0.026671,0.219623,0.982751,-4534.31,1865.94,-465.16
53,5596,0.013137,0.206001,0.946913,-6103.31,253.94,-932.16
54,5696,0.014688,0.175306,0.955837,113.70,-28.05,-140.15
55,5806,0.012620,0.163918,0.954964,1957.71,-3507.04,1554.86
56,5906,0.002713,0.186154,1.009299,6103.70,-1484.05,889.85
57,6016,0.000884,0.193757,0.990738,-196.32,1412.93,-401.17
58,6116,0.004218,0.198755,0.985178,-125.30,969.95,-222.15
59,6226,-0.000345,0.168817,1.003707,-1744.32,1097.93,-62.17
60,6326,0.019140,0.175669,0.923436,-172.31,-126.06,-123.16
61,6436,0.015287,0.150549,0.977483,-6675.31,1224.94,-928.16
62,6546,0.012066,0.124675,0.990758,322.70,25.95,-151.15
63,6646,0.023355,0.126833,0.981973,2516.70,-2669.05,945.85
64,6746,0.009036,0.163219,1.018084,5206.69,-1456.06,889.84
65,6856,0.018912,0.165217,1.010748,542.70,1165.95,-254.15
66,6956,0.019029,0.178670,0.995669,-61.31,566.94,-115.16
67,7066,0.010486,0.154565,0.964595,-481.30,247.95,328.85
68,7166,0.029355,0.168518,0.874646,-1707.28,521.97,-88.13
69,7276,0.019538,0.151191,0.895820,-6019.30,-242.05,-564.15
70,7376,0.015698,0.119910,0.923596,-1062.30,97.95,-450.15
71,7486,0.017470,0.116942,0.905146,1931.69,1510.94,1035.84
72,7596,0.061200,0.093050,1.032524,9075.71,707.96,1435.86
73,7696,0.059167,0.129194,1.028735,878.70,746.95,-194.15
74,7796,0.058355,0.132231,1.028590,-158.31,464.94,-164.16
75,7956,0.061876,0.149314,1.071296,-231.29,1820.96,-34.14
76,8056,0.020778,0.194724,1.001211,-4505.30,-424.05,-341.15
77,8166,0.013548,0.172679,1.004591,-1707.29,-114.04,-765.14
78,8266,0.018187,0.181003,0.983056,-1607.31,48.94,-381.16
79,8376,0.001988,0.146532,0.991686,-3818.31,-66.06,-553.16
80,8476,0.003088,0.115181,0.992887,144.69,83.94,-84.16
81,8586,-0.001380,0.096863,0.993853,-17.32,-4.07,12.83
82,8696,0.001525,0.080543,0.995553,12.70,4.95,-17.15
83,8796,-0.000711,0.068245,0.995790,-4.29,1.96,-12.14
84,8896,0.001434,0.056712,0.996596,-0.31,4.94,-14.16
85,9006,0.000218,0.047989,0.996621,0.70,-11.05,14.85
86,9106,0.001840,0.039952,0.997521,-7.31,-4.06,-9.16
87,9216,0.001662,0.033414,0.998324,-0.29,4.96,9.86
88,9316,0.001767,0.028076,0.999115,7.71,-0.04,-17.14
89,9416,0.001453,0.023593,0.999294,-3.31,-2.06,-0.16
90,9526,0.001315,0.020040,0.999336,2.70,9.95,-12.15
91,9626,0.001508,0.016232,0.999408,-6.31,-0.06,-0.16
92,9736,0.001563,0.013507,0.999652,4.69,15.94,-13.16
93,9836,0.002397,0.011174,0.999384,-3.30,5.95,3.85
94,9936,0.001403,0.009025,0.999504,7.70,-6.05,-13.15
95,10096,0.001181,0.007107,0.999807,-1.30,-8.05,3.85
96,10196,0.000973,0.005642,1.000120,5.69,0.94,7.84
97,10306,0.001438,0.004250,1.000239,0.69,0.94,-6.16
98,10406,0.001375,0.003067,1.000634,-4.29,-0.04,-6.14
99,10506,0.001852,0.002280,1.001170,-2.33,-7.08,7.82
100,10616,0.001672,0.001246,1.000875,1.69,-7.06,-3.16
1,0,0.005445,0.060209,0.986679,-6.30,-1.05,-0.15
2,96,0.009376,0.111294,0.974990,-11.32,1.93,-1.17
3,196,0.013395,0.154662,0.965182,-5.34,4.91,2.81
4,296,0.001576,0.200112,0.925186,-503.34,-565.09,-102.19
5,406,0.008889,0.167315,0.945096,-8507.34,-3346.09,-256.19
6,506,-0.003077,0.189407,1.005361,-2321.33,1638.92,-1579.18
7,616,0.006563,0.198169,1.005170,-154.33,652.92,-250.18
8,716,-0.026807,0.211678,1.076766,-1354.34,-3009.09,542.81
9,826,-0.008407,0.231400,1.097450,-216.34,1498.91,108.81
10,926,-0.020178,0.241151,1.026299,-6522.32,-991.07,-283.17
11,1026,-0.028901,0.224354,1.021300,-1829.34,-249.09,-790.19
12,1136,-0.031885,0.159704,1.040892,1642.66,133.91,394.81
13,1236,0.002420,0.106491,1.042806,3351.66,1633.91,1706.81
14,1336,0.000909,0.138787,1.057304,6235.67,-1943.09,1013.81
15,1446,0.016634,0.162302,1.040276,705.66,2172.91,-539.19
16,1546,0.025168,0.171212,1.030966,-46.33,1004.92,-249.18
17,1656,0.025188,0.147785,1.009850,-390.34,740.91,-22.19
18,1756,0.048863,0.173118,0.891377,-1512.31,560.94,-168.16
19,1866,0.034050,0.158946,0.901875,-6188.33,846.92,-1124.18
20,1966,0.032775,0.142724,0.909535,646.67,-180.08,32.82
21,2076,0.067214,0.108300,0.913720,3659.67,1195.92,1980.82
22,2236,0.075686,0.154222,0.828343,3700.67,558.92,65.82
23,2336,0.061976,0.169727,0.840990,722.66,1577.91,-280.19
24,2436,0.048162,0.214529,0.942798,-1280.33,1263.92,-506.18
25,2546,0.020636,0.217691,0.985848,-2729.35,60.90,-352.20
26,2646,0.013097,0.212763,0.989847,-6141.34,-818.09,-391.19
27,2756,0.015404,0.183836,1.004672,-2874.33,-347.08,-774.18
28,2856,0.003577,0.139528,1.012092,603.67,166.92,191.82
29,2966,0.020862,0.105455,0.996956,4152.66,1523.91,2033.81
30,3066,0.022334,0.143875,1.022599,5121.67,-2501.08,1162.82
31,3176,0.020454,0.162269,1.011051,-33.35,1681.90,-372.20
32,3286,0.031673,0.198723,1.126516,35.67,-849.08,279.82
33,3386,0.027660,0.254098,1.086875,-1585.33,1602.92,-292.18
34,3486,0.040747,0.214320,1.072058,-7011.34,-1034.09,-442.19
35,3596,0.023745,0.179795,1.078873,-1918.34,-637.09,-477.19
36,3696,0.018962,0.157955,0.932139,4201.66,-768.09,409.81
37,3806,-0.027090,0.151861,0.924510,2788.65,-3618.10,1323.80
38,3906,-0.008538,0.169863,0.954061,2098.66,-500.09,1019.81
39,4016,0.003057,0.183626,0.953618,-26.33,1441.92,-362.18
40,4116,0.021518,0.223230,1.058033,-68.34,-1130.09,290.81
41,4226,-0.003036,0.229812,1.063070,-5843.33,582.91,-601.19
42,4386,0.005042,0.180933,1.049278,-5095.33,-629.08,-1123.18
43,4486,0.001288,0.163830,1.044441,-96.34,-7.09,-29.19
44,4586,-0.043834,0.170643,0.988290,2954.66,820.91,841.81
45,4696,-0.028502,0.224975,0.990275,8675.65,228.90,1135.80
46,4796,-0.046157,0.267477,0.946460,891.67,2106.92,-369.18
47,4906,-0.037690,0.260866,0.951442,-112.34,1096.91,-308.19
48,5006,-0.034155,0.234740,0.985248,-3044.34,1358.91,-168.19
49,5116,-0.002568,0.244301,0.883630,-486.35,-27.10,-234.20
50,5216,0.002217,0.228020,0.920614,-7816.34,1469.91,-487.19
51,5326,0.009690,0.191513,0.932658,-2.34,40.91,-66.19
52,5436,0.036568,0.174672,0.935389,1698.66,-2445.09,1240.81
53,5536,0.020468,0.178137,1.014431,5781.66,-2470.09,1061.81
54,5636,0.036885,0.183005,1.016615,943.65,1044.90,-301.20
55,5746,0.035862,0.195951,1.003548,121.66,943.91,-126.19
56,5846,0.024280,0.167000,1.006101,-1258.34,685.91,85.81
57,5956,0.036372,0.195292,0.885553,-2896.34,1114.91,-178.19
58,6056,0.028615,0.173509,0.939405,-6710.33,1173.92,-622.18
59,6166,0.023980,0.146057,0.945830,365.67,-80.08,-24.18
60,6266,0.053677,0.142389,0.934024,1946.66,-2508.09,1528.81
61,6376,0.044038,0.149470,0.987893,5688.66,-2962.09,1134.81
62,6536,0.013212,0.162355,0.995009,-134.35,151.90,-194.20
63,6636,-0.071803,0.204655,0.985457,-2143.35,-971.10,-172.20
64,6736,-0.058446,0.197653,0.985066,-3690.34,1039.91,241.81
65,6846,-0.087338,0.226327,0.930296,-3231.33,-1152.08,1.82
66,6946,-0.066102,0.200127,0.945136,-2274.33,-357.08,-616.18
67,7056,-0.042302,0.154107,0.955114,721.67,249.92,179.82
68,7156,-0.020333,0.142036,0.949569,2152.66,-2754.09,1440.81
69,7266,-0.026616,0.152044,1.004072,4904.66,-3988.09,1238.81
70,7366,-0.005773,0.168333,0.994608,431.66,1465.91,-415.19
71,7476,-0.010871,0.184413,1.117099,-1121.34,-2332.09,426.81
72,7586,0.018157,0.239133,1.084528,-2568.35,1035.90,-264.20
73,7686,0.027560,0.219178,1.014344,-4910.35,1705.90,-195.20
74,7786,-0.002295,0.199561,1.015479,-2197.34,-15.09,-304.19
75,7896,0.005159,0.190742,0.998151,-429.34,-7.09,-42.19
76,7996,0.010470,0.163836,0.990216,-4993.34,383.91,111.81
77,8106,0.013226,0.127820,0.990301,51.67,-3.08,234.82
78,8206,0.012840,0.105665,0.992350,13.65,1.90,-61.20
79,8316,0.010937,0.090331,0.993579,-0.34,-13.09,59.81
80,8416,0.012708,0.076070,0.994753,-0.33,5.92,-27.18
81,8516,0.010148,0.064480,0.995933,-3.34,-2.09,-7.19
82,8686,0.010681,0.054774,0.997137,-8.35,-0.10,11.80
83,8786,0.008974,0.046194,0.997502,-1.34,-2.09,-17.19
84,8886,0.009153,0.039213,0.998160,-4.35,0.90,27.80
85,8996,0.007895,0.033096,0.998262,-7.34,1.91,-11.19
86,9096,0.008034,0.027677,0.998714,1.66,2.91,13.81
87,9206,0.006926,0.023272,0.999245,1.65,-6.10,-3.20
88,9306,0.007540,0.020278,0.999056,-2.34,2.91,8.81
89,9406,0.007237,0.016891,0.999517,-4.36,-12.11,-8.21
90,9516,0.007786,0.013957,1.000221,3.65,-13.10,2.80
91,9616,0.007081,0.011628,1.000489,1.65,-2.10,-15.20
92,9726,0.006994,0.009393,1.000754,-1.35,-11.10,4.80
93,9826,0.006976,0.006943,1.001071,-6.34,5.91,0.81
94,9926,0.006136,0.005703,1.001377,-2.36,5.89,-1.21
95,10036,0.006410,0.004740,1.000996,-4.35,-0.10,0.80
96,10136,0.006589,0.003922,1.000672,-0.34,4.91,10.81
97,10246,0.006411,0.002952,1.000506,-1.35,6.90,-3.20
98,10346,0.006517,0.002787,1.000549,3.67,-5.08,-5.18
99,10446,0.006607,0.002573,1.000530,-0.34,5.91,-12.19
100,10556,0.007049,0.001861,1.000331,2.67,5.92,0.82
1,0,0.001250,-0.000308,1.000210,3.66,2.91,5.81
2,98,0.003210,-0.000003,1.000883,2.65,1.90,-23.20
3,198,0.003392,0.000055,1.000869,-9.35,-13.10,-9.20
4,298,0.005745,0.015083,1.033084,379.66,6.91,90.81
5,458,0.006316,-0.005250,1.041002,8962.64,1224.89,2947.79
6,558,-0.005539,0.025222,1.027737,12459.66,1618.91,3880.81
7,668,-0.015250,0.084082,1.010915,2711.65,475.90,-643.20
8,768,-0.013068,0.128583,0.999856,3.63,44.88,-7.22
9,868,-0.013044,0.169686,0.986519,-96.35,4.90,-41.20
10,978,-0.009618,0.204661,0.975458,4.65,-0.10,-1.20
11,1078,-0.009031,0.235469,0.965561,-1.36,0.89,7.79
12,1188,-0.009136,0.261474,0.956106,1.65,-5.10,-5.20
13,1288,-0.007395,0.283541,0.948709,-8.35,4.90,-1.20
14,1388,-0.013641,0.278000,0.843417,-4672.35,537.90,-463.20
15,1488,-0.014062,0.268456,0.824030,-8811.35,-3393.10,-194.20
16,1588,0.000796,0.286894,0.872919,-2779.34,-549.09,-274.19
17,1698,-0.005067,0.280063,0.888658,-254.34,1208.91,-342.19
18,1798,0.002784,0.297602,1.022024,-274.35,-20.10,381.80
19,1898,-0.011930,0.319944,1.031253,-1963.35,2168.90,-72.20
20,1998,0.002334,0.293397,0.978307,-6786.35,-3077.10,-179.20
21,2158,0.005047,0.260597,0.980288,-111.34,-9.09,-27.19
22,2258,0.008232,0.217005,0.956447,3318.65,1208.90,1178.80
23,2358,0.047047,0.167593,1.077466,9187.65,-3555.10,910.80
24,2458,0.152714,0.179499,1.170994,622.65,376.90,30.80
25,2568,0.135140,0.188667,1.144548,-61.35,1119.90,-297.20
26,2668,0.115899,0.208600,1.253465,-724.36,-1822.11,597.79
27,2768,0.111264,0.232372,1.242791,40.66,1740.91,64.81
28,2868,0.077605,0.236319,1.164395,-7010.35,-1075.10,60.80
29,2968,0.062380,0.208674,1.144359,-2366.36,-353.11,-735.21
30,3068,0.044148,0.194277,0.971468,3288.65,-2053.10,450.80
31,3178,0.015301,0.169075,0.976306,4450.65,-5652.10,364.80
32,3278,0.015849,0.143918,1.079057,2097.65,436.90,462.80
33,3378,0.010603,0.159101,1.050288,859.67,2257.92,-487.18
34,3478,0.019271,0.189309,1.052495,263.65,739.90,-267.20
35,3588,0.028562,0.200741,1.037287,-1753.35,1509.90,-70.20
36,3688,0.022817,0.215072,0.977173,-4289.35,-1179.10,122.80
37,3788,0.021688,0.199165,0.954989,-6509.36,-1276.11,-177.21
38,3888,0.024464,0.175189,0.960797,-131.35,-21.10,202.80
39,3998,-0.027302,0.165119,0.960387,3088.65,-4217.10,950.80
40,4098,-0.009616,0.215738,0.958354,9767.64,-555.11,508.79
41,4258,-0.004580,0.218134,0.963383,-30.34,1533.91,-324.19
42,4368,0.006110,0.242545,0.986682,-3176.34,1321.91,7.81
43,4468,-0.006575,0.189028,1.062993,-3776.34,-200.09,-108.19
44,4568,0.002198,0.205903,0.963886,-5127.35,2217.90,-2.20
45,4668,0.007366,0.158779,0.980261,-488.35,-320.10,-80.20
46,4768,-0.001058,0.117515,0.919730,3466.66,-275.09,437.81
47,4878,-0.036655,0.135505,0.862656,3711.65,-164.10,1391.80
48,4978,-0.010900,0.165115,0.900021,3079.65,-1915.10,905.80
49,5078,-0.017500,0.177392,0.912939,216.65,1349.90,-546.20
50,5178,-0.040120,0.197771,0.997418,-2125.35,-1642.10,152.80
51,5288,-0.023862,0.217254,1.031908,200.66,1831.91,156.81
52,5388,-0.041444,0.226179,0.980622,-7047.34,-575.09,36.81
53,5488,-0.043517,0.211646,0.974949,-2002.35,-206.10,-729.20
54,5588,-0.034861,0.145881,1.003838,1448.66,147.91,393.81
55,5698,-0.044147,0.123360,0.961559,4576.65,1646.90,1042.80
56,5798,-0.021517,0.168506,0.954223,4942.65,-1822.10,898.80
57,5898,-0.008836,0.185201,0.957015,252.65,1706.90,-599.20
58,5998,0.004781,0.189687,0.960615,-32.35,933.90,-240.20
59,6098,0.004068,0.163159,0.956717,-525.35,1181.90,175.80
60,6198,0.029720,0.183384,0.854398,-822.36,443.89,142.79
61,6358,0.015325,0.169154,0.889193,-2928.34,-251.09,-683.19
62,6458,0.053131,0.151291,0.843237,1928.64,11.89,651.79
63,6558,0.044030,0.116772,0.943701,5523.65,-7099.10,436.80
64,6658,0.054716,0.151444,0.956055,1654.66,-1744.09,500.81
65,6768,0.043035,0.166413,0.958791,51.65,968.90,-269.20
66,6868,0.025269,0.183165,1.096762,-1286.35,-1577.10,390.80
67,6968,0.024212,0.182738,1.146618,-40.35,1730.90,187.80
68,7068,-0.008914,0.208613,1.068988,-6712.37,73.88,189.78
69,7178,-0.020500,0.188365,1.067968,-2739.36,-404.11,-611.21
70,7278,-0.003284,0.178754,0.915948,2046.66,-102.09,583.81
71,7378,-0.038272,0.144949,0.915784,2369.65,-3786.10,666.80
72,7488,-0.093958,0.236094,0.828651,2810.65,5271.90,113.80
73,7588,-0.083576,0.231756,0.859306,30.66,1115.91,-244.19
74,7688,-0.050307,0.251927,0.907573,-865.34,862.91,-444.19
75,7788,-0.028841,0.258965,0.839213,-2720.36,1122.89,372.79
76,7888,-0.011509,0.239605,0.874179,-4040.36,2270.89,108.79
77,7998,0.007947,0.188121,0.886780,-4273.35,-263.10,-100.20
78,8098,0.002658,0.150403,0.909613,664.65,14.90,-76.20
79,8198,0.006256,0.149891,0.882420,2528.64,-3635.11,928.79
80,8298,-0.006781,0.201733,0.885949,5801.67,-1349.08,505.82
81,8458,-0.003122,0.205240,0.900428,-161.36,1403.89,-345.21
82,8558,0.025091,0.221350,0.943259,-2103.35,2083.90,236.80
83,8658,0.014045,0.188278,0.965017,-2817.36,368.89,89.79
84,8758,0.030070,0.189849,0.887638,-4008.36,2040.89,538.79
85,8868,0.023770,0.172562,0.896590,355.65,58.90,0.80
86,8968,0.032386,0.174165,0.906947,-5130.34,300.91,-453.19
87,9068,0.035773,0.144252,0.925308,-3438.35,-98.10,455.80
88,9168,0.032518,0.115769,0.933518,-55.34,4.91,120.81
89,9268,0.027444,0.099414,0.944725,-12.34,6.91,-0.19
90,9368,0.023314,0.083040,0.953355,5.66,-3.09,23.81
91,9468,0.020903,0.070953,0.960617,-6.33,2.92,-17.18
92,9578,0.018083,0.059544,0.966203,-3.36,-9.11,7.79
93,9678,0.015925,0.050450,0.971281,7.66,3.91,-11.19
94,9778,0.013395,0.041860,0.975799,-6.34,-4.09,7.81
95,9888,0.011958,0.035272,0.979786,-3.37,9.88,-18.22
96,9988,0.010095,0.029929,0.983229,3.63,0.88,11.78
97,10088,0.009483,0.025644,0.986083,-4.36,2.89,-17.21
98,10188,0.008083,0.021543,0.988398,-4.35,5.90,1.80
99,10288,0.008212,0.018113,0.990110,-8.37,-1.12,-5.22
100,10398,0.007223,0.015435,0.991694,3.66,0.91,-1.19
1,0,0.000408,0.060702,0.986074,12.65,4.90,0.80
2,99,0.001541,0.112116,0.974622,-0.37,-0.12,6.78
3,199,0.001186,0.155835,0.964630,-5.38,1.87,-8.23
4,299,0.021245,0.184226,0.892436,-5012.37,2306.88,-738.22
5,409,0.012167,0.201144,0.916013,-7948.37,-97.12,-962.22
6,509,0.007599,0.202176,0.918951,-953.38,-773.13,83.77
7,669,0.005676,0.205012,0.927967,-60.37,7.88,-4.22
8,769,-0.004125,0.177504,0.913585,-321.38,901.87,669.77
9,869,0.021217,0.191017,0.826800,-1597.38,707.87,452.77
10,979,0.013113,0.168098,0.853301,-5848.38,-717.13,59.77
11,1079,0.013439,0.148214,0.870114,104.62,20.87,121.77
12,1179,-0.006755,0.154842,0.871239,2463.63,-4312.12,1055.78
13,1279,-0.003138,0.208247,0.884354,7347.62,-1265.13,386.77
14,1379,0.025572,0.269243,0.843336,1050.64,-1736.11,-101.21
15,1479,0.028369,0.255299,0.871403,-2310.37,-70.12,-67.22
16,1579,0.023569,0.239767,0.871786,-2045.37,1718.88,320.78
17,1679,0.016833,0.190748,0.900218,-3400.39,245.86,323.76
18,1779,0.017827,0.201799,0.858431,-3947.39,193.86,-57.24
19,1889,0.018893,0.181694,0.882513,118.63,-12.12,-78.22
20,1989,0.000957,0.178868,0.897928,2479.62,-4795.13,1058.77
21,2089,-0.009693,0.228414,0.948038,6867.63,-297.12,558.78
22,2199,-0.005672,0.226289,0.931029,851.61,847.86,-41.24
23,2299,-0.011647,0.227614,0.936311,162.62,596.87,-102.23
24,2399,0.008433,0.268034,0.983135,-1378.38,1484.87,155.77
25,2499,-0.027453,0.267217,0.991074,-4464.38,-495.13,225.77
26,2599,0.016879,0.221571,0.976070,-5472.37,579.88,358.78
27,2759,0.021382,0.176710,0.987871,185.62,136.87,111.77
28,2859,0.010800,0.170714,0.950001,2765.62,-3573.13,1211.77
29,2959,0.002556,0.214488,0.929641,8416.62,-1165.13,356.77
30,3059,0.027682,0.211375,0.931798,1654.61,1289.86,-163.24
31,3169,0.025328,0.223122,0.941029,29.62,558.87,-272.23
32,3269,0.037573,0.234297,0.843462,-633.38,1310.87,179.77
33,3369,0.057485,0.215854,0.822219,-4593.37,1699.88,204.78
34,3469,0.052638,0.205378,0.831994,-5786.37,-210.12,-408.22
35,3579,0.045772,0.184223,0.854182,-78.38,20.87,-62.23
36,3679,-0.012799,0.198376,0.821424,3577.61,40.86,868.76
37,3779,0.017652,0.234119,0.864130,10311.62,-1219.13,341.77
38,3879,0.058551,0.234361,0.938773,-295.37,1776.88,-395.22
39,3989,0.048326,0.231674,0.948222,-40.38,740.87,-170.23
40,4089,0.031944,0.194636,0.980661,-2178.38,1699.87,162.77
41,4189,0.041201,0.178205,0.943067,-253.38,-677.13,447.77
42,4299,0.033047,0.163836,0.975639,-7468.38,848.87,-143.23
43,4399,0.031445,0.141662,0.978092,-40.38,-16.13,107.77
44,4499,0.038872,0.106883,0.950405,1993.62,1155.87,871.77
45,4599,0.055695,0.076406,1.064585,6468.63,-6236.12,284.78
46,4699,0.218860,0.084356,1.214216,1709.61,550.86,4.76
47,4799,0.178106,0.102192,1.182037,173.62,1174.87,-353.23
48,4899,0.123690,0.145587,1.167520,-1586.39,-572.14,-170.24
49,5059,0.111659,0.127303,1.126031,-709.40,-876.15,454.75
50,5159,0.088029,0.147102,1.053741,-6295.38,1589.87,174.77
51,5259,0.072485,0.125698,1.052920,491.62,-55.13,-233.23
52,5369,0.021827,0.127408,1.036677,2974.61,-4575.14,1097.76
53,5469,0.026320,0.160319,1.000294,7405.62,-189.13,242.77
54,5569,0.039533,0.192285,0.948860,2127.62,2182.87,-336.23
55,5669,0.025130,0.198766,0.953921,486.62,771.87,-120.23
56,5769,0.003255,0.218337,1.067262,-888.37,740.88,-244.22
57,5879,0.004053,0.238140,1.050791,-3851.38,994.87,101.77
58,5979,0.013501,0.224229,1.007383,-6911.38,-749.13,111.77
59,6079,0.016332,0.187392,1.022470,-2926.38,-271.13,-382.23
60,6179,0.034724,0.160018,0.976554,1651.62,510.87,876.77
61,6289,0.082821,0.128968,1.094081,9095.61,-3189.14,397.76
62,6389,0.136887,0.171753,1.127163,3167.62,3450.87,-432.23
63,6489,0.110059,0.181148,1.107199,81.61,1007.86,-218.24
64,6589,0.118346,0.219639,1.191048,-238.39,-9.14,350.76
65,6699,0.078937,0.227528,1.175839,-5740.38,1365.87,50.77
66,6799,0.103502,0.193584,1.117611,-4872.38,970.87,275.77
67,6899,0.067381,0.167424,1.099685,-658.37,43.88,-744.22
68,6999,0.047720,0.126291,1.060717,2636.63,8.88,375.78
69,7159,0.086416,0.127015,1.108691,9072.62,-1246.13,325.77
70,7259,0.091072,0.149933,1.102101,613.62,-325.13,43.77
71,7359,0.081077,0.169266,1.076595,119.62,1394.87,-329.23
72,7469,0.057860,0.155762,1.080513,-2490.37,2055.88,25.78
73,7569,0.059018,0.140017,1.045300,-687.38,-879.13,603.77
74,7669,0.046068,0.152525,0.985358,-6565.37,1383.88,146.78
75,7769,0.037074,0.128751,0.997541,468.62,-64.13,-201.23
76,7869,0.020842,0.112298,0.988177,-5187.37,-381.12,-646.22
77,7969,0.020942,0.092965,0.987432,-1810.39,-97.14,-561.24
78,8069,0.016047,0.078931,0.990039,0.62,0.87,-136.23
79,8179,0.015548,0.066526,0.991395,8.62,5.87,-32.23
80,8279,0.012689,0.055286,0.992877,-0.38,-11.13,7.77
81,8379,0.013609,0.045786,0.994302,-7.38,-4.13,18.77
82,8479,0.012432,0.037694,0.995128,-3.39,3.86,-4.24
83,8579,0.011761,0.031437,0.995995,-2.38,1.87,-0.23
84,8679,0.010422,0.025827,0.996201,5.62,1.87,-21.23
85,8779,0.009376,0.020802,0.996834,-4.38,-9.13,13.77
86,8879,0.010280,0.016438,0.997519,5.61,-1.14,-1.24
87,8989,0.009529,0.012931,0.997661,1.62,6.87,1.77
88,9089,0.009441,0.009986,0.998240,-1.38,-2.13,4.77
89,9189,0.009530,0.007374,0.999299,-4.39,-7.14,-6.24
90,9349,0.009258,0.005299,0.999504,-0.38,9.87,5.77
91,9449,0.008532,0.003078,0.999678,-4.38,0.87,-4.23
92,9559,0.009051,0.001209,1.000064,-1.38,-3.13,13.77
93,9659,0.008502,-0.000344,1.000411,-0.39,7.86,-10.24
94,9759,0.008293,-0.001114,1.000082,-1.39,3.86,-1.24
95,9869,0.006961,-0.001952,1.000060,6.62,-2.13,-6.23
96,9969,0.008081,-0.002976,1.000590,-2.39,-12.14,11.76
97,10069,0.007404,-0.003809,1.000565,3.61,-4.14,-0.24
98,10169,0.008402,-0.004481,1.000872,-9.40,-2.15,20.75
99,10269,0.008629,-0.005290,1.000420,-3.37,4.88,-30.22
100,10369,0.007741,-0.005593,1.000731,2.61,-3.14,24.76
1,0,0.000828,-0.000511,0.999935,-3.39,2.86,10.76
2,99,0.001769,-0.001384,1.000355,-5.39,-7.14,2.76
3,199,-0.005872,0.018619,1.013237,2351.60,-1274.15,-838.25
4,299,-0.003065,-0.001988,1.031639,7489.60,204.85,31.75
5,409,-0.021499,-0.033878,1.059457,10783.60,-259.15,3118.75
6,509,0.005112,0.056002,1.043424,6600.61,466.86,2293.76
7,609,0.005429,0.122017,1.019670,124.60,100.85,13.75
8,709,0.008976,0.163647,1.001621,-73.39,3.86,-44.24
9,809,0.008586,0.199966,0.986719,-16.39,-4.14,-23.24
10,909,0.009004,0.231021,0.974272,-0.40,5.85,8.75
11,1009,0.008372,0.257472,0.963986,1.63,-6.12,-4.22
12,1119,0.007998,0.279754,0.954967,6.59,7.84,0.74
13,1219,0.008230,0.298712,0.947613,5.60,-4.15,1.75
14,1319,-0.011916,0.301148,0.934678,-6602.39,749.86,-388.24
15,1479,0.000056,0.300418,1.007509,-2542.38,977.87,-240.23
16,1579,-0.016172,0.282182,0.997932,-480.39,1188.86,-439.24
17,1679,-0.014970,0.279133,1.114119,-1095.40,-2218.15,570.75
18,1779,-0.004591,0.262387,1.158825,-1409.40,2086.85,187.75
19,1879,-0.047917,0.275252,1.090369,-3631.39,-1789.14,-416.24
20,1979,-0.042081,0.237647,1.084585,-2177.39,-273.14,-759.24
21,2089,-0.031828,0.213171,1.070770,59.61,-6.14,-88.24
22,2189,-0.028771,0.197476,1.054908,2731.62,-4125.13,2218.77
23,2289,-0.022456,0.233848,1.066876,5997.61,-12.14,1252.76
24,2389,-0.043584,0.229919,1.023674,22.60,859.85,-422.25
25,2499,-0.037610,0.222734,1.024233,196.62,823.87,-148.23
26,2599,-0.043684,0.183961,1.029926,-1285.40,1241.85,33.75
27,2699,-0.012464,0.186361,0.952844,-696.40,-507.15,-37.25
28,2799,-0.013227,0.188731,0.944196,-7434.39,796.86,-231.24
29,2909,-0.006295,0.163884,0.955615,-95.38,32.87,281.77
30,3009,-0.022742,0.143955,0.974567,2082.61,-3926.14,1731.76
31,3109,-0.015116,0.190863,0.984378,6527.61,66.86,1370.76
32,3219,-0.031741,0.186644,0.986161,-1798.38,-1875.13,66.77
33,3319,-0.023699,0.192249,0.987952,-1668.39,-112.14,-146.24
34,3419,-0.020323,0.181724,0.975522,-1538.39,1747.86,107.76
35,3579,-0.011046,0.202808,0.877249,-4595.38,1496.87,-207.23
36,3679,-0.013908,0.187330,0.896695,-1798.39,-449.14,-545.24
37,3789,0.018559,0.177049,0.774833,2222.61,-812.14,368.76
38,3889,-0.016539,0.157067,0.801914,3559.60,-4295.15,1079.75
39,3989,-0.003050,0.174817,0.836634,1675.60,-346.15,222.75
40,4089,0.002721,0.182288,0.856185,-164.40,1610.85,-306.25
41,4199,-0.004587,0.197299,0.994934,-1255.40,-2333.15,533.75
42,4299,0.005132,0.189605,1.063817,-782.40,1740.85,64.75
43,4399,-0.028374,0.226846,0.995000,-4057.39,-659.14,-316.24
44,4499,-0.020983,0.194945,0.991217,-2665.40,-251.15,-650.25
45,4609,-0.023545,0.168287,0.994154,304.61,-66.14,37.76
46,4709,-0.016750,0.169065,0.946497,2422.61,-3420.14,938.76
47,4809,-0.018080,0.210816,0.936715,6860.60,617.85,489.75
48,4909,-0.019136,0.220925,0.934881,15.61,262.86,38.76
49,5009,-0.024392,0.225892,0.953483,-165.40,1066.85,-543.25
50,5109,-0.001906,0.238245,0.863404,-859.39,1109.86,155.76
51,5219,0.007831,0.223018,0.923416,-3618.39,2327.86,-198.24
52,5319,0.016640,0.195939,0.904406,-5627.38,-743.13,-631.23
53,5419,0.014495,0.178086,0.918882,-171.39,-15.14,-46.24
54,5519,0.006593,0.171974,0.916299,1966.59,-4726.16,1291.74
55,5679,0.022838,0.199207,0.923204,1443.62,-1361.13,411.77
56,5779,0.017090,0.205107,0.927023,312.60,1422.85,-355.25
57,5879,0.022074,0.230593,1.059706,-150.40,-1619.15,519.75
58,5979,0.027281,0.272288,1.042152,-687.39,1982.86,25.76
59,6089,0.056700,0.224561,1.027689,-6259.42,-1009.17,-16.27
60,6189,0.041478,0.193607,1.037460,-2381.39,-304.14,-503.24
61,6289,0.036158,0.131866,1.056293,797.62,-142.13,209.77
62,6399,0.038373,0.105130,1.015649,4460.61,1112.86,1633.76
63,6499,0.052341,0.147681,1.021019,5001.60,-1586.15,711.75
64,6599,0.055663,0.167774,1.013260,272.61,1922.86,-493.24
65,6699,0.056344,0.177601,1.009338,58.60,949.85,-199.25
66,6799,0.053609,0.169053,0.955083,231.60,784.85,315.75
67,6909,0.070510,0.166622,0.919787,-4266.40,1262.85,-82.25
68,7009,0.051661,0.153295,0.917728,-5868.38,-15.13,-655.23
69,7109,0.046662,0.126293,0.932457,82.61,5.86,-22.24
70,7209,0.018646,0.123391,0.931061,3105.61,-5424.14,1259.76
71,7319,-0.002677,0.144490,0.923045,5443.62,-3025.13,496.77
72,7419,0.010344,0.151218,0.952156,1515.63,1733.88,-311.22
73,7519,-0.001934,0.172776,0.952566,179.61,222.86,-128.24
74,7619,-0.000724,0.192583,0.928854,-2443.39,441.86,-161.24
75,7779,-0.003396,0.204457,0.917341,-6030.41,-1675.16,-152.26
76,7879,0.009642,0.166063,0.939654,-4409.38,-558.13,-363.23
77,7979,0.001974,0.103729,0.935293,3002.62,-266.13,422.77
78,8079,0.027023,0.079511,0.929443,3939.60,542.85,1635.75
79,8179,0.026819,0.117098,0.959078,5372.61,-2185.14,655.76
80,8279,0.044718,0.141503,0.956948,423.62,1933.87,-484.23
81,8389,0.036787,0.154539,0.972185,32.62,816.87,-381.23
82,8489,0.048302,0.175324,0.870896,-1028.37,1433.88,55.78
83,8589,0.069332,0.162138,0.855407,-4511.39,1477.86,-87.24
84,8689,0.053058,0.164223,0.886223,-6312.38,828.87,-432.23
85,8799,0.046165,0.153727,0.903169,-81.39,43.86,16.76
86,8899,0.031114,0.154327,0.892799,-4500.40,282.85,-687.25
87,8999,0.029490,0.126145,0.909565,-561.40,-157.15,-1036.25
88,9099,0.025931,0.108324,0.924145,-15.39,-12.14,-82.24
89,9209,0.021019,0.090594,0.936099,0.61,-0.14,5.76
90,9309,0.018877,0.077007,0.946425,-7.38,-0.13,18.77
91,9409,0.017075,0.065147,0.954707,-3.39,6.86,-7.24
92,9509,0.014462,0.055725,0.959459,-17.39,-9.14,5.76
93,9609,0.013505,0.046782,0.966024,20.61,10.86,-20.24
94,9709,0.011648,0.039199,0.971806,-9.40,2.85,-1.25
95,9809,0.010728,0.033138,0.976647,1.61,-3.14,-8.24
96,9909,0.010020,0.027712,0.980836,-0.39,3.86,7.76
97,10069,0.008832,0.022843,0.984396,-4.39,8.86,-7.24
98,10169,0.007675,0.019290,0.986049,8.62,2.87,-8.23
99,10269,0.008139,0.016344,0.988955,-1.40,-0.15,-0.25
100,10369,0.007416,0.013528,0.990748,-12.38,-2.13,4.77
1,0,0.000608,-0.000126,1.000704,-0.39,4.86,-4.24
2,92,0.000960,0.000316,1.000423,-5.40,3.85,-0.25
3,192,0.001258,0.000069,1.000368,-0.40,5.85,-7.25
4,292,0.001421,0.000005,1.000833,3.59,-6.16,6.74
5,402,0.002145,0.000116,1.000954,2.60,1.85,-12.25
6,502,0.002687,-0.000009,1.000782,4.60,-3.15,0.75
7,602,0.043889,0.000067,1.007137,5458.61,833.86,1809.76
8,712,0.045182,-0.012814,0.991627,11711.59,839.84,3199.74
9,812,0.022130,0.017107,0.972658,12935.59,1151.84,3734.74
10,912,0.022183,0.086393,0.972226,2298.60,549.85,-442.25
11,1012,0.022759,0.130785,0.966384,118.59,33.84,88.74
12,1122,0.018415,0.171466,0.958489,-10.39,8.86,-21.24
13,1222,0.016242,0.206484,0.951888,-15.39,-1.14,-6.24
14,1322,0.013699,0.236744,0.944885,-15.39,4.86,-1.24
15,1432,0.012198,0.263051,0.939373,13.62,1.87,-7.23
16,1532,0.011177,0.285283,0.933698,2.61,6.86,2.76
17,1632,0.015803,0.286804,0.843639,-2980.39,-560.14,-117.24
18,1732,-0.021501,0.271801,0.817956,-8300.40,-2822.15,171.75
19,1832,-0.004887,0.276607,0.906208,-2717.40,-51.15,-128.25
20,1932,-0.004901,0.261705,0.921567,-407.40,1302.85,-360.25
21,2032,0.000451,0.266049,1.062850,-572.40,-1408.15,358.75
22,2202,0.012875,0.267909,1.008020,-3524.40,1818.85,-364.25
23,2302,0.010068,0.242337,0.974471,-5511.39,-1286.14,-251.24
24,2402,0.013670,0.219373,0.976367,-81.40,0.85,-178.25
25,2512,-0.044023,0.194196,0.976075,3259.60,-1954.15,1136.75
26,2612,-0.005720,0.228496,0.996957,10692.61,12.86,1456.76
27,2712,-0.051386,0.279313,0.929581,639.59,1999.84,-111.26
28,2812,-0.042430,0.274643,0.938503,402.60,1224.85,-218.25
29,2912,-0.022548,0.299952,1.048224,101.61,-1415.14,590.76
30,3012,-0.023539,0.342431,1.015639,-2700.40,1683.85,-252.25
31,3122,0.018539,0.291343,0.983949,-5234.38,330.87,-95.23
32,3222,0.019882,0.244348,0.991217,-1874.39,-244.14,-613.24
33,3322,0.050888,0.216230,0.941658,2226.60,774.85,1135.75
34,3422,0.048513,0.198483,0.964370,4344.61,-6487.14,1681.76
35,3532,0.062571,0.244792,0.868465,5474.60,965.85,-48.25
36,3632,0.041177,0.241089,0.885676,449.60,1509.85,-424.25
37,3732,0.018964,0.258944,1.011799,-809.40,787.85,4.75
38,3832,0.002024,0.276318,1.016556,-2905.40,458.85,-392.25
39,3942,0.018148,0.268051,0.969494,-6214.39,-1460.14,30.76
40,4042,0.018726,0.234034,0.985284,-2921.38,-532.13,-596.23
41,4142,0.011471,0.194591,0.984716,191.61,81.86,147.76
42,4302,0.061884,0.153924,1.099901,8950.59,-2671.16,1736.74
43,4402,0.032939,0.222427,1.035541,1695.61,4033.86,-538.24
44,4502,0.030584,0.224587,1.028478,102.60,1061.85,-263.25
45,4602,0.025560,0.192201,1.011159,-330.41,891.84,121.74
46,4702,0.049616,0.212298,0.902505,-1035.40,349.85,19.75
47,4812,0.026925,0.195086,0.952128,-6238.39,634.86,-117.24
48,4912,0.028126,0.180089,0.947287,-106.39,11.86,-10.24
49,5012,0.034458,0.150441,0.906276,3043.62,-413.13,835.77
50,5112,-0.008702,0.140328,0.914502,2945.59,-3472.16,1332.74
51,5222,0.063982,0.173736,0.984958,1219.61,-1446.14,1347.76
52,5322,0.050287,0.186405,0.980814,325.62,1111.87,-222.23
53,5422,0.071422,0.235753,1.026253,-1313.38,1038.87,229.77
54,5522,0.041193,0.254445,1.019357,-5541.40,1117.85,-407.25
55,5632,0.046517,0.245778,0.943659,-4845.40,1920.85,-196.25
56,5732,0.049705,0.196591,0.954206,-282.38,-12.13,-84.23
57,5832,0.032713,0.156246,0.878154,4106.61,-846.14,431.76
58,5932,0.005086,0.135521,0.837937,4937.60,936.85,1309.75
59,6032,0.023041,0.175821,0.843962,4577.61,-1545.14,887.76
60,6132,0.024514,0.188799,0.866296,525.61,1937.86,-528.24
61,6242,0.008187,0.209004,0.889802,-61.40,312.85,-418.25
62,6342,0.028148,0.223835,0.811637,-1800.40,1193.85,27.75
63,6442,0.039091,0.195279,0.849916,-4005.39,2080.86,-16.24
64,6542,0.024625,0.180656,0.841437,-6022.39,-419.14,-658.24
65,6702,0.075903,0.154493,0.808027,1708.59,661.84,853.74
66,6802,0.073200,0.121250,0.921920,5920.61,-5982.14,1098.76
67,6902,0.191478,0.195496,1.076499,8966.61,6935.86,439.76
68,7002,0.169021,0.209002,1.059429,-2960.41,-35.16,-225.26
69,7112,0.151307,0.227458,1.137809,-1150.39,-980.14,219.76
70,7212,0.124367,0.215735,1.172480,-2685.39,1093.86,-307.24
71,7312,0.126168,0.230636,1.082529,-1873.40,2205.85,-153.25
72,7422,0.092085,0.190495,1.079148,-819.40,-89.15,-330.25
73,7522,0.083860,0.173751,0.936693,3176.59,-1924.16,553.74
74,7622,0.031532,0.172317,0.886871,3566.59,-2705.16,1308.74
75,7722,0.043725,0.200158,0.898410,2120.60,-772.15,131.75
76,7822,0.038598,0.211482,0.904098,-182.40,1613.85,-371.25
77,7932,0.036382,0.230243,1.044651,-737.41,-1447.16,453.74
78,8032,0.036531,0.253607,1.069565,-102.40,2183.85,-4.25
79,8132,0.006628,0.268412,1.000948,-6104.40,-1187.15,-249.25
80,8232,0.000474,0.239193,0.994075,-2271.39,-207.14,-421.24
81,8342,0.001633,0.208223,1.000593,-171.41,10.84,9.74
82,8442,-0.007471,0.187538,0.966638,2855.60,-2852.15,1158.75
83,8542,0.000263,0.223002,0.952772,9202.60,333.85,331.75
84,8642,0.030696,0.242453,0.965998,261.60,-70.15,-166.25
85,8802,0.034792,0.258510,0.986139,-3089.39,2300.86,-95.24
86,8902,0.020641,0.218563,1.013129,-3801.40,-749.15,-62.25
87,9002,0.025093,0.187044,0.961784,-4249.40,1819.85,-62.25
88,9102,0.019501,0.144744,0.977101,-394.39,108.86,-205.24
89,9202,0.024636,0.134790,1.004329,-5323.39,388.86,-317.24
90,9302,0.022995,0.110142,1.014747,-2831.40,-115.15,23.75
91,9412,0.023395,0.091297,1.013440,-49.40,4.85,64.75
92,9512,0.021463,0.077787,1.011066,-7.41,4.84,12.74
93,9612,0.019291,0.064913,1.009744,-5.39,-0.14,8.76
94,9712,0.017756,0.054518,1.008144,-1.40,-1.15,-21.25
95,9822,0.016249,0.046434,1.007498,-6.40,-5.15,17.75
96,9922,0.015207,0.038903,1.007022,1.59,-3.16,-5.26
97,10022,0.015016,0.032648,1.006123,-1.40,-6.15,3.75
98,10122,0.013775,0.027167,1.005103,-1.39,1.86,-7.24
99,10222,0.013231,0.022636,1.004785,0.59,0.84,-12.26
100,10332,0.012550,0.018327,1.004167,-6.39,-7.14,4.76
1,0,0.001047,-0.000492,0.999587,-2.40,11.85,14.75
2,92,0.003640,-0.001314,0.999602,-3.40,5.85,-3.25
3,192,0.002786,-0.001390,0.999981,-20.39,-2.14,0.76
4,292,0.004001,-0.001527,1.000102,5.60,-3.15,-1.25
5,402,0.029350,-0.000784,1.011813,5839.60,1398.85,1845.75
6,502,0.014459,-0.025805,1.009701,10072.58,944.83,2629.73
7,602,0.004017,0.016685,1.009499,12428.60,2395.85,3373.75
8,702,0.019623,0.078765,1.001875,1301.61,546.86,-401.24
9,802,0.014925,0.131625,0.986331,-82.41,-13.16,-48.26
10,912,0.014136,0.172875,0.974400,-84.40,-2.15,-22.25
11,1012,0.013465,0.207938,0.964222,-35.41,2.84,-17.26
12,1112,0.012236,0.237760,0.955222,-17.41,4.84,-7.26
13,1212,0.011502,0.262888,0.947775,-10.41,2.84,-3.26
14,1312,0.010897,0.284321,0.941481,-5.41,-3.16,-2.26
15,1412,0.017322,0.296881,0.849357,-2359.40,-1291.15,-210.25
16,1512,-0.020008,0.280220,0.828803,-8387.40,-1947.15,-212.25
17,1622,-0.002794,0.307439,0.867381,-2762.41,400.84,-674.26
18,1722,-0.048954,0.289999,0.915316,417.59,-47.16,-59.26
19,1882,-0.049884,0.251024,0.901055,-1170.41,-210.16,321.74
20,1982,-0.022568,0.232085,0.863335,-1528.42,-61.17,91.73
21,2092,-0.046554,0.201797,0.905321,-6118.40,-1169.15,-36.25
22,2192,-0.030998,0.169478,0.919933,-38.39,-37.14,257.76
23,2292,-0.007156,0.120475,0.922064,2504.60,1664.85,1218.75
24,2392,0.012085,0.086109,1.035990,6852.59,-6455.16,1383.74
25,2502,-0.012338,0.163154,0.973379,1750.59,4109.84,-776.26
26,2602,-0.006987,0.169792,0.977398,-78.39,1116.86,-269.24
27,2702,-0.014248,0.183400,1.082896,-2245.40,-1936.15,443.75
28,2802,-0.003685,0.160506,1.146330,-1394.40,1610.85,-63.25
29,2902,-0.030338,0.201599,1.079967,-3199.41,472.84,-207.26
30,3002,-0.020163,0.157225,1.081072,-3444.41,-15.16,-683.26
31,3112,-0.009830,0.154407,0.925511,2430.59,-1154.16,705.74
32,3212,-0.040432,0.145439,0.911497,3658.59,-3190.16,2129.74
33,3312,-0.022756,0.175114,0.931738,3023.58,-1223.17,660.73
34,3412,-0.022287,0.188088,0.938122,50.60,1406.85,-383.25
35,3522,-0.037086,0.210652,0.942944,-384.40,710.85,-395.25
36,3622,-0.011635,0.232852,0.848019,-2089.39,1074.86,-145.24
37,3722,0.004085,0.210432,0.868627,-3856.40,1615.85,-456.25
38,3822,-0.003721,0.193517,0.856169,-5895.41,-1027.16,-404.26
39,3982,-0.019675,0.165883,0.859459,3628.60,2221.85,1580.75
40,4082,0.025540,0.151678,0.971643,9462.60,-1666.15,1744.75
41,4182,-0.016740,0.235385,0.876405,128.59,2610.84,-198.26
42,4292,-0.017357,0.235272,0.888415,-124.40,917.85,-365.25
43,4392,0.001180,0.270332,0.997410,-248.39,-373.14,320.76
44,4492,-0.011243,0.308245,0.980576,-3229.40,1541.85,-205.25
45,4592,0.006377,0.266606,0.962953,-6793.40,-2325.15,-346.25
46,4692,0.006412,0.247948,0.970404,-3077.42,-448.17,-850.27
47,4802,-0.007382,0.189225,0.962199,3085.61,-325.14,281.76
48,4902,0.028665,0.156943,0.968445,2194.60,-1207.15,1780.75
49,5002,0.026712,0.167699,1.026506,5386.60,-2399.15,863.75
50,5102,0.038401,0.183067,1.022117,394.60,1939.85,-452.25
51,5212,0.015817,0.198474,1.113015,-2104.39,-2299.14,415.76
52,5312,0.019637,0.175278,1.174367,-1261.39,1577.86,-74.24
53,5412,-0.002843,0.218623,1.113155,-2140.41,838.84,-250.26
54,5512,0.008097,0.168839,1.104887,-3552.40,-84.15,-314.25
55,5622,-0.001500,0.111838,1.072902,3603.60,-89.15,490.75
56,5722,0.032840,0.092830,1.038336,4357.59,1403.84,1734.74
57,5822,0.038519,0.133949,1.057716,5360.59,-2057.16,946.74
58,5922,0.041076,0.157584,1.042017,325.60,1839.85,-437.25
59,6022,0.012194,0.193622,1.021403,21.59,274.84,-288.26
60,6122,0.025933,0.210174,0.933826,-2958.40,1592.85,-114.25
61,6282,0.021057,0.208953,0.874454,-5161.41,1765.84,-96.26
62,6392,0.020209,0.181787,0.888387,502.60,3.85,-144.25
63,6492,0.014435,0.145787,0.874998,1165.60,-428.15,878.75
64,6592,-0.009901,0.121156,0.936896,4808.60,-5472.15,1128.75
65,6692,0.031889,0.163904,0.962281,1587.61,-1693.14,513.76
66,6792,0.027402,0.174421,0.961941,249.59,1517.84,-328.26
67,6892,-0.011568,0.208703,0.981721,-1777.39,-1569.14,-48.24
68,6992,-0.006918,0.199738,0.987180,-3646.40,1796.85,-20.25
69,7102,-0.030688,0.243644,0.925940,-3991.40,1144.85,-49.25
70,7202,-0.031227,0.196333,0.939950,-3217.41,70.84,-454.26
71,7302,-0.040455,0.157601,0.844485,4017.60,-1698.15,530.75
72,7412,-0.066244,0.151596,0.825084,4666.60,-3396.15,991.75
73,7512,0.190815,0.202540,1.010640,2621.60,1190.85,839.75
74,7612,0.173933,0.218926,0.998285,-971.40,-447.15,15.75
75,7712,0.157881,0.214855,1.004483,-412.40,-545.15,84.75
76,7812,0.130393,0.186126,0.973039,-1098.40,4705.85,182.75
77,7922,0.118638,0.171832,0.973044,-4787.40,2811.85,146.75
78,8022,0.092753,0.150710,0.952230,-6921.39,1336.86,-1382.24
79,8122,0.085526,0.108787,0.972111,687.59,-275.16,104.74
80,8222,0.106886,0.099246,0.983644,2347.59,-1341.16,716.74
81,8382,0.196216,0.136180,1.084800,313.61,-28.14,596.76
82,8482,0.167354,0.155946,1.066375,45.60,1044.85,-285.25
83,8582,0.129950,0.178809,1.157629,-1640.40,-1467.15,234.75
84,8682,0.120513,0.162628,1.208407,-1069.39,1892.86,180.76
85,8792,0.088524,0.176450,1.135662,-7144.39,-1469.14,-79.24
86,8892,0.068877,0.132406,1.115193,-1833.41,-236.16,-87.26
87,8992,0.063987,0.128422,1.085873,-74.39,-22.14,-99.24
88,9092,0.054063,0.104125,1.065310,-4572.40,77.85,548.75
89,9202,0.044107,0.084791,1.057023,13.60,-20.15,107.75
90,9302,0.039106,0.071470,1.048624,3.59,-1.16,-17.26
91,9402,0.033500,0.059891,1.040606,-3.39,-8.14,48.76
92,9512,0.029302,0.050378,1.034395,2.60,-6.15,-26.25
93,9612,0.025350,0.042182,1.029463,-7.40,-9.15,12.75
94,9712,0.023894,0.035436,1.024960,2.59,9.84,-32.26
95,9812,0.020350,0.029206,1.021590,-0.40,-3.15,2.75
96,9912,0.019589,0.023838,1.018195,2.59,15.84,-8.26
97,10012,0.015738,0.019678,1.015675,5.59,-2.16,4.74
98,10112,0.016329,0.015923,1.013808,-2.40,-4.15,6.75
99,10212,0.014066,0.012896,1.011616,-1.39,-10.14,-11.24
100,10322,0.013516,0.010743,1.010138,-3.41,1.84,-18.26
1,0,0.001028,-0.000236,0.998506,-21.41,0.84,11.74
2,92,-0.010768,-0.005180,1.035231,6228.60,1334.85,1523.75
3,192,-0.007630,-0.033368,1.022960,10495.60,858.85,2072.75
4,292,-0.002948,0.010951,1.003117,12410.59,1638.84,2704.74
5,452,0.000299,0.079898,0.987845,164.60,79.85,-128.25
6,552,0.003718,0.131306,0.974039,16.60,-0.15,-42.25
7,652,0.005525,0.173794,0.963420,6.59,-7.16,-2.26
8,752,0.006824,0.209507,0.954194,3.60,7.85,-4.25
9,852,0.007360,0.239496,0.946662,7.59,2.84,-20.26
10,962,0.008071,0.264602,0.940626,-3.41,4.84,3.74
11,1062,0.008109,0.285540,0.936302,2.60,8.85,-2.25
12,1162,0.016417,0.324449,0.911166,-6041.41,-448.16,-281.26
13,1262,0.015221,0.299953,0.999627,-6041.42,-2839.17,-405.27
14,1362,-0.018938,0.319543,0.953640,-461.40,2178.85,-495.25
15,1462,-0.021972,0.305945,0.956720,-122.41,-0.16,-174.26
16,1562,-0.004409,0.318374,1.087969,-289.42,-276.17,328.73
17,1662,-0.011307,0.332052,1.102101,-1473.40,2316.85,-45.25
18,1762,-0.017885,0.325147,1.024062,-5745.42,-3431.17,-377.27
19,1872,-0.006263,0.274839,1.020442,-1903.41,-112.16,-806.26
20,1972,-0.022295,0.225594,1.051697,1799.58,-3258.17,1915.73
21,2082,-0.020980,0.244674,1.076580,5774.59,-761.16,1053.74
22,2182,-0.004701,0.248020,1.041737,1216.60,1301.85,-255.25
23,2282,0.002782,0.248795,1.027134,124.58,837.83,-182.27
24,2382,0.026647,0.288161,1.040156,-2499.42,1372.83,58.73
25,2542,0.009909,0.285094,1.033371,-2412.41,1709.84,-111.26
26,2642,0.021298,0.228709,1.022660,-5035.40,-416.15,-660.25
27,2742,0.023050,0.178877,1.031867,425.59,190.84,241.74
28,2842,0.060556,0.148604,1.027900,2212.59,-1931.16,1748.74
29,2942,0.349196,0.123276,1.183034,5853.59,158.84,809.74
30,3042,0.341461,0.135310,1.162820,2018.59,2049.84,-344.26
31,3152,0.294310,0.158832,1.141810,333.58,1007.83,-358.27
32,3252,0.280049,0.151507,1.090993,-2272.41,-241.16,-686.26
33,3352,0.233028,0.141838,1.050582,-2751.41,573.84,-315.26
34,3452,0.185094,0.129646,1.045712,-6482.40,-1450.15,-349.25
35,3562,0.157205,0.120619,1.034359,-117.41,25.84,-136.26
36,3662,0.097391,0.099104,1.022731,3870.58,1774.83,1602.73
37,3762,0.115653,0.076073,1.115203,10065.60,-3000.15,1307.75
38,3862,0.093236,0.147190,1.063049,-869.40,1314.85,-401.25
39,3972,0.078247,0.160910,1.048509,89.59,796.84,-264.26
40,4072,0.071310,0.146590,1.004308,107.58,1314.83,93.73
41,4172,0.083450,0.179773,0.879781,-2098.40,845.85,-155.25
42,4282,0.054858,0.175257,0.889765,-5970.43,440.82,-284.28
43,4382,0.049306,0.160377,0.899551,-72.41,3.84,-45.26
44,4482,0.071393,0.128284,0.908218,2728.59,337.84,1051.74
45,4582,0.066492,0.081303,1.030794,6549.60,-5513.15,1329.75
46,4682,0.117935,0.140978,1.043230,3754.60,4368.85,-307.25
47,4842,0.081645,0.182492,1.031132,-358.40,614.85,-577.25
48,4942,0.083610,0.199926,0.954455,-3527.41,1771.84,-102.26
49,5042,0.080520,0.172502,1.000717,-3242.41,2214.84,-201.26
50,5142,0.065002,0.161551,0.954456,-5665.41,-698.16,-772.26
51,5252,0.049780,0.142539,0.961992,-9.42,-131.17,120.73
52,5352,0.066102,0.134948,0.950287,2089.60,-3609.15,1516.75
53,5452,0.058900,0.148179,1.014973,5384.59,-1503.16,725.74
54,5552,0.059498,0.159407,1.010995,1455.60,1269.85,-455.25
55,5662,0.055063,0.170398,1.001956,-67.40,889.85,-177.25
56,5762,0.056291,0.177268,1.019633,-3367.42,2374.83,-186.27
57,5862,0.038567,0.137441,1.065182,-2219.41,-510.16,-33.26
58,5962,0.028153,0.154345,0.977392,-5907.40,1754.85,-118.25
59,6062,0.020637,0.118689,0.992326,251.59,1.84,-159.26
60,6162,-0.017099,0.108266,0.966203,3979.59,1946.84,1487.74
61,6272,0.007789,0.161828,0.967416,9772.59,-1935.16,1028.74
62,6372,0.003090,0.177252,0.964640,-96.41,2021.84,-643.26
63,6472,0.008672,0.189265,0.961144,122.60,926.85,-214.25
64,6572,0.012721,0.198139,0.989484,-3510.41,2323.84,-258.26
65,6732,-0.020367,0.239318,0.927440,-4380.40,40.85,-161.25
66,6832,-0.011907,0.198588,0.938204,-2994.41,-217.16,-459.26
67,6932,-0.033024,0.167758,0.839999,4663.61,-1403.14,489.76
68,7032,-0.047696,0.157483,0.773864,2804.60,490.85,1671.75
69,7142,-0.005675,0.203515,0.792503,1108.60,3441.85,336.75
70,7242,-0.002806,0.206791,0.809316,2.59,-21.16,-5.26
71,7342,0.003569,0.214684,0.838952,-84.41,-3.16,-71.26
72,7452,0.005966,0.240454,0.754774,-649.41,1369.84,601.74
73,7552,0.021078,0.246557,0.749799,-4227.41,1519.84,-72.26
74,7652,0.022533,0.215452,0.757692,-5391.42,-1387.17,38.73
75,7752,0.017892,0.177881,0.796848,350.58,15.83,-185.27
76,7852,-0.020128,0.204576,0.750479,2788.60,-1593.15,2173.75
77,7962,-0.002127,0.241256,0.779016,7580.59,-1336.16,1101.74
78,8062,0.012367,0.238394,0.787214,1616.59,1010.84,-123.26
79,8162,0.018444,0.237720,0.814398,86.59,733.84,-142.26
80,8262,0.023005,0.208967,0.809232,346.60,1641.85,203.75
81,8372,0.038179,0.200420,0.782868,-4855.41,1462.84,-40.26
82,8472,0.035623,0.185941,0.805522,-5404.42,-119.17,-183.27
83,8572,0.029293,0.157209,0.836404,125.59,31.84,-115.26
84,8672,0.023016,0.134911,0.863185,-5433.41,-637.16,-471.26
85,8832,0.017406,0.104239,0.884631,64.60,28.85,-24.25
86,8932,0.017143,0.086426,0.901340,-13.40,1.85,18.75
87,9032,0.016241,0.073849,0.916147,4.60,6.85,-16.25
88,9132,0.014614,0.062334,0.928916,0.60,-2.15,-10.25
89,9232,0.013834,0.053296,0.939751,-4.42,-2.17,-16.27
90,9332,0.012513,0.044791,0.949144,5.60,-9.15,5.75
91,9432,0.013368,0.038385,0.956707,10.59,-6.16,-3.26
92,9542,0.013014,0.032538,0.963081,-8.40,-11.15,40.75
93,9642,0.012859,0.026670,0.969066,-1.41,1.84,-21.26
94,9742,0.012234,0.022122,0.973311,-7.40,-6.15,15.75
95,9852,0.012397,0.018805,0.976974,0.59,-7.16,-9.26
96,9952,0.011383,0.015712,0.981645,0.60,3.85,0.75
97,10052,0.012609,0.012917,0.983948,-0.40,-4.15,2.75
98,10152,0.011563,0.011622,0.986657,3.58,6.83,-12.27
99,10252,0.011333,0.009368,0.988355,-4.41,2.84,-15.26
100,10362,0.010679,0.007140,0.990073,-7.41,1.84,-8.26
1,0,-0.002963,0.020491,0.990907,12883.59,1222.84,2608.74
2,91,-0.003450,0.075866,0.983728,2167.57,204.82,-463.28
3,191,-0.005457,0.125663,0.971711,-103.43,48.82,-71.28
4,291,-0.001633,0.168247,0.961423,-46.43,-6.18,9.72
5,401,0.000097,0.203216,0.953906,-9.44,-0.19,-4.29
6,501,0.002338,0.233416,0.946710,-12.43,1.82,-2.28
7,661,0.004315,0.259489,0.941107,0.59,-1.16,-7.26
8,761,0.005630,0.280626,0.936801,13.57,7.82,7.72
9,861,0.026834,0.308681,0.909613,-7143.43,8.82,-734.28
10,971,0.048941,0.298489,0.992960,-4787.42,-813.17,-253.27
11,1071,0.042554,0.283398,0.995049,-668.43,1208.82,-456.28
12,1171,0.036980,0.276687,0.991368,24.59,44.84,-21.26
13,1271,0.028267,0.239049,0.956562,-116.44,346.81,399.71
14,1371,0.036170,0.230915,0.890191,-1250.42,639.83,152.73
15,1471,0.013828,0.204684,0.930126,-6494.41,-861.16,56.74
16,1571,0.016829,0.173909,0.939333,-65.42,60.83,285.73
17,1671,0.033936,0.128672,0.943534,3027.57,1464.82,1208.72
18,1771,0.068508,0.097250,1.060208,8342.56,-5883.19,1103.71
19,1881,0.090076,0.117820,1.092273,-393.43,2429.82,-399.28
20,1981,0.081823,0.139224,1.071043,11.59,1055.84,-265.26
21,2081,0.085574,0.167927,1.186755,303.58,-1211.17,405.73
22,2191,0.059612,0.217684,1.136795,-4740.43,1273.82,-183.28
23,2291,0.080904,0.182341,1.100335,-5729.41,-248.16,205.74
24,2391,0.075546,0.152080,1.096627,-2387.43,-377.18,-560.28
25,2491,0.051655,0.102499,1.104498,2764.57,2003.82,1211.72
26,2591,0.078846,0.077220,1.191498,7779.57,-6180.18,1002.72
27,2751,0.079308,0.107185,1.154633,-467.42,2144.83,-878.27
28,2851,0.070253,0.131026,1.120862,-465.43,1295.82,-309.28
29,2951,0.046607,0.127047,1.117444,-3281.41,1242.84,-163.26
30,3051,0.043684,0.101949,1.104449,-2525.43,-1383.18,172.72
31,3161,0.020416,0.124707,1.065022,-6709.43,396.82,114.72
32,3261,0.018820,0.111861,1.046744,-43.44,78.81,44.71
33,3361,-0.024631,0.127621,1.004492,2789.56,-2599.19,1467.71
34,3461,-0.006103,0.188698,1.000896,8517.57,-722.18,976.72
35,3571,0.004630,0.187696,1.005640,1167.57,724.82,-196.28
36,3671,0.010273,0.191751,1.003593,-78.42,930.83,-243.27
37,3771,0.008167,0.182582,1.031260,-3479.44,2312.81,-130.29
38,3871,0.014067,0.145674,1.050931,-1728.44,-1072.19,420.71
39,3971,0.012948,0.162624,0.970973,-5394.43,1807.82,383.72
40,4071,0.013901,0.144384,0.961418,-2289.43,-187.18,-793.28
41,4181,0.021889,0.126298,0.859474,3252.55,-2098.20,408.70
42,4291,-0.000985,0.126800,0.897223,6348.56,-4505.19,899.71
43,4391,0.015242,0.144714,0.947016,1395.57,-1029.18,279.72
44,4491,0.018434,0.164848,0.951950,269.59,1351.84,-448.26
45,4591,0.038541,0.205015,1.032426,-1152.42,672.83,140.73
46,4691,0.023699,0.211013,1.048773,-4154.43,1287.82,91.72
47,4791,0.047539,0.171324,0.999131,-5975.42,883.83,401.73
48,4891,0.042883,0.146213,0.998866,-794.43,-190.18,-274.28
49,5051,-0.016373,0.159475,0.974562,3313.57,-3585.18,663.72
50,5151,0.012452,0.224764,0.967747,8890.57,-763.18,470.72
51,5251,0.001267,0.212383,0.977738,597.57,755.82,-404.28
52,5361,0.003387,0.216306,0.974219,81.58,821.83,-300.27
53,5461,-0.001019,0.201622,0.929552,888.57,1120.82,483.72
54,5561,0.014426,0.218017,0.830062,-2429.42,1185.83,336.73
55,5661,-0.001615,0.187935,0.888666,-6726.43,-207.18,-78.28
56,5761,0.004728,0.160460,0.905667,-130.42,-35.17,146.73
57,5871,0.018999,0.120627,0.869709,1411.57,-476.18,893.72
58,5971,0.009102,0.098652,0.954006,5677.58,-6946.17,791.73
59,6071,0.163910,0.118408,1.120224,3852.57,4072.82,-303.28
60,6171,0.134364,0.137159,1.098646,-72.42,1459.83,-439.27
61,6281,0.087515,0.174228,1.118170,-2075.43,-2313.18,-19.28
62,6381,0.080031,0.159924,1.136762,-3063.42,2220.83,0.73
63,6481,0.055339,0.184185,1.093953,-2570.43,1666.82,243.72
64,6581,0.059199,0.142295,1.080399,-5118.43,-710.18,-598.28
65,6691,0.043620,0.125712,0.937554,4547.56,-1258.19,462.71
66,6791,-0.007873,0.131759,0.867919,4501.57,-795.18,978.72
67,6891,-0.091742,0.226053,0.822462,376.58,-189.17,1070.73
68,6991,-0.076239,0.219447,0.858640,834.57,2000.82,-590.28
69,7151,-0.074560,0.209054,0.882561,-1885.42,1416.83,-409.27
70,7251,-0.076411,0.221130,0.835603,-2310.43,-635.18,141.72
71,7361,-0.064910,0.220060,0.820243,-7463.44,-46.19,-69.29
72,7471,-0.050593,0.178300,0.833537,173.58,-155.17,-14.27
73,7571,-0.015847,0.175342,0.842401,1910.58,-3337.17,1501.73
74,7671,-0.015848,0.176984,0.932387,4648.58,-1386.17,529.73
75,7771,0.017001,0.186601,0.929445,745.57,1161.82,-180.28
76,7871,0.024139,0.196368,0.932748,18.56,749.81,-132.29
77,7971,0.048005,0.248451,0.988473,-674.43,489.82,209.72
78,8071,0.028099,0.277267,0.975104,-5177.43,1297.82,-3.28
79,8181,0.048514,0.252012,0.920911,-4476.43,1651.82,278.72
80,8281,0.029319,0.203353,0.952997,-1482.43,-207.18,-508.28
81,8381,0.021994,0.186749,0.935665,-4694.43,96.82,-495.28
82,8491,0.022304,0.153116,0.952409,-1478.44,-144.19,-655.29
83,8591,0.021561,0.126653,0.959263,-44.43,-28.18,-39.28
84,8691,0.020545,0.106942,0.965784,-10.43,3.82,-21.28
85,8791,0.017612,0.090499,0.971235,-4.44,-2.19,20.71
86,8891,0.016364,0.076816,0.975576,-3.42,-8.17,3.73
87,9001,0.015395,0.064562,0.979357,4.57,3.82,-11.28
88,9101,0.014205,0.054989,0.982571,2.56,1.81,-2.29
89,9201,0.014091,0.046357,0.985504,-6.44,-2.19,8.71
90,9361,0.013756,0.038508,0.987887,2.56,-7.19,-4.29
91,9461,0.013031,0.032348,0.989803,-1.45,-0.20,-4.30
92,9571,0.012433,0.027094,0.991505,-2.44,-1.19,3.71
93,9671,0.011981,0.022390,0.992531,1.57,5.82,-1.28
94,9771,0.011376,0.019069,0.993713,7.56,-4.19,-2.29
95,9881,0.011100,0.015130,0.994481,-1.44,9.81,0.71
96,9981,0.009950,0.012221,0.995628,-0.43,7.82,-20.28
97,10081,0.009980,0.009840,0.996456,-0.43,-1.18,9.72
98,10181,0.010261,0.007175,0.997087,-4.44,-6.19,-4.29
99,10281,0.009365,0.005660,0.997861,4.57,3.82,-5.28
100,10381,0.010252,0.004776,0.998006,0.57,7.82,2.72
1,0,0.001907,0.060719,0.985725,25.57,8.82,11.72
2,100,0.010209,0.120258,0.960701,-7571.47,510.78,-833.32
3,200,0.022687,0.146440,1.024556,-4922.48,-2497.23,25.67
4,300,0.025089,0.155144,1.018755,-440.47,1056.78,-553.32
5,410,0.029713,0.168970,1.012836,-33.48,-4.23,-4.33
6,510,0.022272,0.166348,0.947691,443.51,953.76,316.66
7,610,0.034350,0.182431,0.853958,-3177.46,528.79,-23.31
8,710,0.018377,0.161054,0.893120,-6368.48,-730.23,-177.33
9,810,0.017324,0.130671,0.908261,-54.49,-8.24,66.66
10,910,-0.024732,0.135936,0.896047,2603.53,-3459.22,1651.68
11,1010,-0.008827,0.196863,0.898042,8533.52,-244.23,773.67
12,1120,0.019415,0.192365,0.939417,756.52,603.77,-432.33
13,1220,0.018188,0.195792,0.950196,-41.49,985.76,-247.34
14,1320,0.028314,0.228331,1.066310,325.51,-1163.24,448.66
15,1430,0.006288,0.245717,1.058842,-5591.49,911.76,-267.34
16,1530,0.038561,0.207121,1.029460,-5333.48,814.77,43.67
17,1630,0.033949,0.168454,1.032500,-1236.49,-31.24,-289.34
18,1730,0.061542,0.134415,0.994435,2201.52,965.77,959.67
19,1890,0.069890,0.121468,1.027302,9603.52,-2097.23,1055.67
20,1990,0.064370,0.131098,1.008217,-2125.48,-831.23,204.67
21,2090,0.057389,0.133059,1.021842,-2009.47,-731.22,104.68
22,2200,0.075697,0.154537,0.976147,-2121.49,1183.76,302.66
23,2300,0.070075,0.132913,1.024812,-3960.48,767.77,39.67
24,2400,0.049823,0.125849,0.979899,-2346.48,594.77,-709.33
25,2500,0.040886,0.101076,0.987297,539.53,-109.22,123.68
26,2600,0.076246,0.085329,0.997211,2427.52,-1258.23,981.67
27,2700,0.074332,0.097176,1.079576,5413.53,-1692.22,707.68
28,2800,0.050164,0.123250,1.038478,1129.53,1099.78,-336.32
29,2910,0.046193,0.139003,1.027935,-33.48,899.77,-257.33
30,3010,0.034651,0.126485,1.055703,-2954.48,2082.77,-7.33
31,3110,0.036339,0.113610,1.032157,-569.46,-747.21,349.69
32,3220,0.031677,0.114001,1.041715,-7727.47,1137.78,-72.32
33,3320,0.024143,0.106404,1.020413,652.53,-26.22,-513.32
34,3420,0.029276,0.102346,0.959369,3245.53,-717.22,430.68
35,3520,0.008680,0.109205,0.979789,7047.52,-4228.23,991.67
36,3620,0.105524,0.175717,1.043692,2741.53,-943.22,460.68
37,3730,0.088049,0.188142,1.034692,95.53,1220.78,-384.32
38,3830,0.105677,0.249148,1.061264,-853.47,379.78,336.68
39,3990,0.094514,0.229336,1.078797,-2604.47,2428.78,110.68
40,4090,0.088798,0.184261,1.050322,-5789.48,-875.23,-238.33
41,4200,0.075717,0.170648,1.042597,-54.47,16.78,27.68
42,4300,0.030193,0.164387,1.040628,2917.53,-4489.22,787.68
43,4400,0.038611,0.230990,1.008869,8253.53,-442.22,653.68
44,4500,0.018758,0.238145,0.998391,-325.47,2308.78,-811.32
45,4610,0.020121,0.233094,1.001129,37.53,891.78,-215.32
46,4710,0.033986,0.256999,1.117422,-95.47,-753.22,407.68
47,4810,0.027973,0.304436,1.079528,-1958.48,2206.77,-149.33
48,4910,0.030389,0.273364,1.042557,-7045.46,-2240.21,-174.31
49,5020,0.029914,0.226574,1.044200,-1995.49,-473.24,-304.34
50,5120,-0.031005,0.202366,1.026151,3669.52,743.77,1427.67
51,5220,0.004317,0.199697,1.079365,10940.53,-2348.22,1043.68
52,5330,0.027255,0.193382,1.082226,953.53,113.78,-257.32
53,5430,0.034136,0.198268,1.068654,-89.48,714.77,-145.33
54,5530,0.054267,0.224192,1.165260,590.52,-1327.23,447.67
55,5630,0.047849,0.278949,1.109478,-1814.47,2037.78,-56.32
56,5730,0.051989,0.243424,1.081491,-7135.48,-1518.23,156.67
57,5830,0.036721,0.213997,1.079693,-2379.47,-251.22,-379.32
58,5930,0.042860,0.190120,0.926279,3610.54,-1424.21,278.69
59,6090,0.003711,0.265753,0.949063,5076.54,-1331.21,130.69
60,6190,-0.000122,0.270166,0.966123,46.53,2226.78,-1019.32
61,6290,0.005519,0.262417,0.961434,26.53,30.78,-21.32
62,6400,0.036259,0.309554,0.961732,101.51,1031.76,507.66
63,6500,0.008684,0.312853,0.925731,-4229.48,-611.23,-16.33
64,6600,0.022012,0.256385,0.926094,-5072.49,592.76,332.66
65,6700,0.016752,0.204506,0.946836,-131.47,-86.22,-510.32
66,6800,0.010744,0.181540,0.849496,1982.54,-845.21,708.69
67,6910,0.005105,0.133307,0.956215,5732.52,-6698.23,938.67
68,7010,0.041804,0.202045,0.928403,3757.53,5480.78,-91.32
69,7110,0.035443,0.206107,0.939516,-104.47,1156.78,-381.32
70,7210,0.058362,0.262240,0.983495,-608.48,899.77,199.67
71,7320,0.033368,0.215983,1.050175,-4599.48,-154.23,-127.33
72,7420,0.040687,0.208141,0.992357,-3626.46,1678.79,467.69
73,7520,0.032095,0.172617,0.995726,-284.47,-16.22,-501.32
74,7620,0.035449,0.164230,1.013623,-5102.46,620.79,-434.31
75,7730,0.039306,0.136154,1.006167,-1775.46,-41.21,107.69
76,7830,0.038557,0.111795,1.006805,-49.47,2.78,60.68
77,7930,0.034569,0.096290,1.006652,-8.46,12.79,-14.31
78,8030,0.030831,0.080400,1.004856,-3.47,4.78,8.68
79,8190,0.028039,0.068432,1.004153,1.52,-3.23,-0.33
80,8290,0.025024,0.056996,1.003976,-2.47,-5.22,-1.32
81,8390,0.023414,0.048447,1.003936,1.53,7.78,-8.32
82,8490,0.021386,0.040375,1.003646,-6.48,7.77,-4.33
83,8590,0.018985,0.034392,1.003454,-0.48,-2.23,8.67
84,8690,0.018244,0.028757,1.003437,3.52,-4.23,-0.33
85,8790,0.018108,0.023730,1.003075,-0.48,-7.23,-2.33
86,8890,0.016583,0.019493,1.002584,-5.48,-1.23,-5.33
87,8990,0.015726,0.016515,1.002570,-1.48,9.77,-5.33
88,9090,0.014870,0.013708,1.002264,-3.48,-9.23,9.67
89,9190,0.016632,0.011396,1.002133,-0.48,-3.23,10.67
90,9300,0.014083,0.009944,1.001839,-3.48,-8.23,-13.33
91,9400,0.014187,0.007995,1.001588,3.53,8.78,12.68
92,9500,0.012866,0.006430,1.001632,-1.47,6.78,-4.32
93,9600,0.014032,0.004642,1.002108,1.54,2.79,9.69
94,9700,0.012935,0.003891,1.002220,-3.49,3.76,-21.34
95,9800,0.012607,0.003400,1.001674,2.53,1.78,10.68
96,9900,0.012383,0.002286,1.002053,0.51,5.76,-10.34
97,10000,0.012431,0.001558,1.002301,-2.49,0.76,-5.34
98,10100,0.014119,0.000263,1.002292,-0.48,-14.23,177.67
99,10200,0.017861,0.001267,1.004391,-64.50,-8.25,84.65
100,10310,0.025016,-0.004361,1.015146,-177.48,-65.23,-3374.33
1,0,0.000605,0.065552,0.996912,-5272.49,-839.24,-243.34
2,92,-0.027390,0.097284,1.011884,-8949.48,-1748.23,-779.33
3,192,-0.025075,0.137550,0.993226,-130.48,3057.77,-486.33
4,292,-0.036767,0.150482,0.999468,-262.47,53.78,-203.32
5,402,-0.015321,0.205455,1.049524,-755.48,800.77,44.67
6,502,-0.043564,0.235208,1.024689,-3038.48,328.77,-128.33
7,602,-0.010661,0.195075,0.992007,-6374.48,-1150.23,-117.33
8,702,-0.014518,0.163471,0.996289,-1110.48,-38.23,-772.33
9,812,0.021334,0.132230,0.969076,1811.53,1093.78,1075.68
10,912,0.028975,0.094855,1.068973,5883.53,-6280.22,1223.68
11,1012,0.198360,0.123565,1.211948,2370.53,1717.78,142.68
12,1172,0.179337,0.136598,1.183148,-55.48,1069.77,-215.33
13,1272,0.153738,0.123213,1.189649,-3162.47,1908.78,-181.32
14,1372,0.133718,0.104787,1.166574,-1081.47,-541.22,13.68
15,1472,0.116371,0.125489,1.080675,-6234.48,1087.77,-9.33
16,1572,0.103604,0.109156,1.061879,454.52,-46.23,-230.33
17,1682,0.048404,0.109556,1.042424,2361.52,-3636.23,1575.67
18,1782,0.038855,0.162721,1.067909,8566.53,-597.22,842.68
19,1882,0.022463,0.171638,1.053903,893.52,1001.77,-413.33
20,1982,0.024624,0.175446,1.046465,12.52,710.77,-212.33
21,2092,0.038217,0.233377,1.078632,-551.47,674.78,85.68
22,2192,0.000936,0.255939,1.054137,-3824.47,229.78,-298.32
23,2292,0.027842,0.214418,1.017148,-6360.47,-1069.22,-346.32
24,2392,0.027200,0.189836,1.023811,-3348.48,-552.23,-1040.33
25,2502,-0.009050,0.136495,0.965773,3936.52,-534.23,373.67
26,2602,0.013988,0.114941,0.965182,3279.51,-1173.24,2070.66
27,2702,0.020423,0.139906,1.015291,4123.52,-2398.24,756.66
28,2802,0.010494,0.150158,0.998264,562.51,1003.76,-342.34
29,2912,0.025382,0.191209,1.104495,-254.49,0.76,186.66
30,3012,0.018078,0.218247,1.114389,-3129.47,1824.78,-348.32
31,3112,0.025713,0.207922,1.032803,-5508.49,315.76,-116.34
32,3272,0.019477,0.188856,1.029080,-165.47,0.78,10.68
33,3372,0.037174,0.144140,1.028900,4202.53,1588.78,1097.68
34,3472,0.074299,0.104484,1.132696,9172.53,-3532.22,1365.68
35,3572,0.017160,0.187286,1.010735,1105.54,3157.79,-422.31
36,3672,0.017864,0.198836,1.010341,82.52,1142.77,-306.33
37,3772,0.036865,0.232018,1.022694,-3687.48,1713.77,-17.33
38,3872,0.013099,0.184673,1.085728,-4390.47,-389.22,-192.32
39,3982,0.011904,0.196248,1.006848,-6085.48,1442.76,-19.34
40,4082,0.016254,0.166885,0.999968,586.53,-13.22,-112.32
41,4182,0.047765,0.141926,0.960411,2036.52,752.77,872.67
42,4292,0.085773,0.110622,1.064172,8945.54,-3839.21,1218.69
43,4392,0.099349,0.165037,1.063855,-1129.47,1792.78,-446.32
44,4492,0.090618,0.175347,1.054979,61.52,1117.77,-340.33
45,4592,0.022626,0.222892,1.017516,-982.46,-559.21,-323.31
46,4692,0.034706,0.223370,0.976810,-3708.47,1660.78,-271.32
47,4802,0.012399,0.251040,0.943418,-2794.48,1470.77,-129.33
48,4902,0.010870,0.193408,0.970827,-4106.47,-236.22,-654.32
49,5002,0.000415,0.151433,0.892337,3899.52,-950.23,382.67
50,5102,-0.020410,0.141408,0.857828,4676.53,463.78,1656.68
51,5212,0.103264,0.209095,0.992924,2326.53,-868.22,607.68
52,5312,0.079005,0.214133,0.990569,-130.47,1687.78,-609.32
53,5412,0.048259,0.252106,1.040477,-2259.47,-1942.22,-60.32
54,5512,0.060852,0.244064,1.054206,-1849.47,1842.78,122.68
55,5672,0.053044,0.235323,1.013746,-6981.47,827.78,-158.32
56,5772,0.044704,0.201399,1.008377,655.54,-42.21,-323.31
57,5872,-0.006165,0.199681,0.955218,3215.55,269.80,1746.70
58,5972,0.021073,0.214151,0.994242,10720.53,-2390.22,1170.68
59,6082,0.027105,0.209641,1.011574,282.53,400.78,-333.32
60,6182,0.030127,0.212821,1.007355,62.54,892.79,-153.31
61,6282,0.046135,0.267269,1.032845,-1435.47,1274.78,-2.32
62,6392,0.024696,0.214435,1.093020,-4265.46,-284.21,-55.31
63,6492,0.026761,0.202669,1.014896,-4678.47,1983.78,33.68
64,6592,0.019562,0.153281,1.027207,-570.47,-157.22,-911.32
65,6692,0.013278,0.136845,0.922443,3104.53,-1104.22,223.68
66,6792,0.004147,0.125456,0.912624,3944.55,-508.20,1495.70
67,6892,0.021105,0.157468,0.965765,5108.54,-1914.21,920.69
68,6992,0.037056,0.175633,0.963272,718.53,1807.78,-420.32
69,7102,0.061162,0.233316,0.990596,-1574.48,1116.77,209.67
70,7202,0.034979,0.247483,0.991006,-5895.46,968.79,-238.31
71,7302,0.064486,0.205930,0.967369,-4939.47,359.78,-20.32
72,7412,0.053533,0.163377,0.979192,-298.46,61.79,-244.31
73,7512,0.047501,0.180766,0.965713,-3665.47,-34.22,-530.32
74,7612,0.027047,0.143965,0.978883,-3817.46,-19.21,184.69
75,7772,0.022131,0.123799,0.983468,-11.47,-13.22,-88.32
76,7872,0.019069,0.103710,0.986065,-0.47,3.78,6.68
77,7982,0.018443,0.087587,0.989004,-1.48,-1.23,3.67
78,8082,0.016777,0.072838,0.991704,-9.47,2.78,-11.32
79,8182,0.016056,0.061309,0.992681,1.53,-2.22,1.68
80,8282,0.014802,0.051344,0.993933,-1.46,0.79,-11.31
81,8382,0.014378,0.042581,0.995161,-5.47,-3.22,7.68
82,8492,0.013595,0.035645,0.996040,-4.48,-2.23,-8.33
83,8592,0.013297,0.029694,0.997227,6.53,2.78,0.68
84,8692,0.012749,0.024142,0.998053,-0.48,1.77,-0.33
85,8802,0.012450,0.019899,0.998389,-1.46,1.79,-5.31
86,8902,0.011719,0.015907,0.998198,0.54,-0.21,-3.31
87,9002,0.011537,0.012442,0.998695,-2.47,0.78,1.68
88,9102,0.011016,0.009587,0.998679,-2.47,-4.22,-1.32
89,9202,0.011306,0.006960,0.999433,-1.47,-3.22,3.68
90,9302,0.010875,0.005202,0.999635,0.53,-0.22,-7.32
91,9402,0.010563,0.003562,1.000155,2.53,-1.22,3.68
92,9512,0.010482,0.001728,1.000560,-1.47,1.78,-7.32
93,9612,0.010430,0.000517,1.000336,4.52,-2.23,1.67
94,9712,0.010478,-0.000347,1.000366,-10.46,-3.21,-10.31
95,9892,0.010776,-0.000679,1.000520,0.55,5.80,1.70
96,9992,0.010240,-0.001749,1.000614,-0.49,2.76,-0.34
97,10092,0.010848,-0.002273,1.000602,1.53,4.78,-7.32
98,10192,0.010357,-0.002646,1.000574,1.53,4.78,-7.32
99,10292,0.010709,-0.002853,1.000989,4.53,-2.22,2.68
100,10392,0.010496,-0.003303,1.000921,-0.47,-2.22,-22.32
1,0,0.004780,0.039991,1.054133,-1247.48,2567.77,174.67
2,99,-0.022944,0.091011,0.983984,-4581.49,-2839.24,-110.34
3,199,-0.008974,0.088529,0.986192,-2011.50,-260.25,-636.35
4,299,-0.008231,0.081988,0.993763,148.51,31.76,38.66
5,459,0.018181,0.055829,1.089371,7019.51,-5673.24,957.66
6,559,0.176001,0.083600,1.233296,3089.51,3642.76,-289.34
7,659,0.153319,0.109238,1.191607,-77.49,1556.76,-406.34
8,759,0.137682,0.145165,1.182959,-460.51,849.74,-640.36
9,869,0.126021,0.136647,1.158763,-4173.49,2065.76,-67.34
10,969,0.091829,0.143818,1.152442,-2591.49,1942.76,136.66
11,1069,0.093674,0.113383,1.112829,-5697.49,-971.24,-87.34
12,1179,0.063602,0.082258,1.009394,4451.51,-1154.24,641.66
13,1279,0.018979,0.078873,0.953188,5094.51,785.76,1360.66
14,1379,0.030854,0.096413,0.938958,8289.51,-1348.24,903.66
15,1479,0.044501,0.116448,0.944386,-1919.48,-334.23,232.67
16,1579,0.038193,0.139704,1.022132,-1920.50,-1048.25,-92.35
17,1679,0.044623,0.153392,1.032497,-2260.47,1820.78,-33.32
18,1779,0.027036,0.143696,1.065789,-2507.48,962.77,424.67
19,1889,0.013331,0.140562,1.045216,-1696.50,-36.25,-583.35
20,1989,-0.006374,0.098402,0.970380,4335.51,-1329.24,347.66
21,2089,-0.035575,0.094354,0.892304,3780.52,2202.77,1147.67
22,2249,-0.034504,0.108070,0.906250,848.51,493.76,-259.34
23,2349,-0.033191,0.119856,0.923469,14.51,940.76,-304.34
24,2449,-0.005306,0.168071,1.031177,237.50,76.75,279.65
25,2549,-0.021318,0.217659,1.016876,-2574.49,2099.76,-20.34
26,2649,-0.000048,0.203705,0.976467,-6712.50,-2849.25,15.65
27,2759,0.004922,0.183111,0.987438,-3114.48,-247.23,-821.33
28,2859,0.000688,0.141380,0.920207,3625.52,-238.23,271.67
29,2959,0.020233,0.114424,0.917827,3909.52,-67.23,1522.67
30,3059,0.024248,0.143092,0.965005,5416.51,-3247.24,638.66
31,3169,0.021527,0.158341,0.974198,292.52,1782.77,-449.33
32,3269,0.050690,0.201882,1.063751,515.52,-251.23,244.67
33,3369,0.038876,0.261999,1.019295,-2867.48,1994.77,-108.33
34,3469,0.058497,0.223322,1.019392,-5250.50,-1557.25,264.65
35,3579,0.051994,0.188743,1.020830,-1200.49,-387.24,-493.34
36,3679,0.037823,0.171840,0.994568,371.52,-271.23,86.67
37,3779,0.071426,0.149103,0.993522,2305.50,-3152.25,1192.65
38,3879,0.060823,0.153545,1.082812,5311.51,-1171.24,598.66
39,3989,0.059812,0.175997,1.057635,442.51,1750.76,-607.34
40,4089,0.007408,0.216870,1.030466,-1841.49,-1029.24,-285.34
41,4189,0.015252,0.202486,1.028009,-3970.48,2204.77,-233.33
42,4349,0.009229,0.204248,0.985674,-6881.48,1171.77,84.67
43,4449,0.009951,0.178793,0.979187,660.51,-31.24,-197.34
44,4549,0.024610,0.139835,0.955473,2017.53,1350.78,993.68
45,4649,0.054262,0.105823,1.066071,6719.51,-5834.24,674.66
46,4749,0.105652,0.158614,1.080777,3909.52,4815.77,-580.33
47,4849,0.088523,0.170748,1.067276,5.52,1271.77,-381.33
48,4949,0.066310,0.181812,1.147535,-2129.48,-1392.23,106.67
49,5059,0.057555,0.213409,1.151212,-352.48,2632.77,131.67
50,5159,0.024111,0.234041,1.072177,-5678.49,-2482.24,-43.34
51,5259,0.029431,0.205160,1.065660,-2579.49,-430.24,-556.34
52,5369,0.012676,0.184714,0.964723,1179.51,-185.24,819.66
53,5469,-0.016856,0.160211,0.996114,4312.51,-5859.24,824.66
54,5569,-0.124153,0.229161,1.079321,-427.49,18659.76,-564.34
55,5669,-0.092218,0.229540,1.068748,-1362.48,-327.23,-50.33
56,5769,-0.074521,0.226274,1.059688,-666.49,-982.24,-8.34
57,5879,-0.093463,0.213335,0.995059,-1125.49,3787.76,246.66
58,5979,-0.072631,0.203601,0.949628,-4676.48,2463.77,437.67
59,6079,-0.063127,0.174233,0.936555,-6388.48,1996.77,-979.33
60,6179,-0.045417,0.143814,0.938004,1180.52,-206.23,49.67
61,6289,-0.036260,0.083552,0.897579,4128.53,-146.22,10.68
62,6389,-0.036569,0.070544,0.946695,5546.52,-1277.23,-401.33
63,6489,-0.025920,0.092043,0.959788,668.52,1765.77,-446.33
64,6589,-0.013022,0.114381,0.963795,29.52,964.77,-272.33
65,6749,-0.002938,0.148879,0.998932,-350.49,2307.76,385.66
66,6849,-0.029028,0.178751,0.944918,-5639.47,-2221.22,142.68
67,6949,-0.009054,0.122367,0.979115,-1272.48,-601.23,470.67
68,7049,0.000380,0.136257,0.959349,-1147.48,89.77,-304.33
69,7159,-0.006396,0.121861,0.958715,-3251.48,-919.23,-12.33
70,7259,-0.006462,0.096258,0.963230,41.51,-11.24,12.66
71,7359,-0.004393,0.080007,0.969723,-8.47,-7.22,-8.32
72,7469,-0.002140,0.066871,0.974418,6.51,7.76,7.66
73,7569,-0.000592,0.056438,0.978152,-6.49,-3.24,10.66
74,7669,0.001732,0.047057,0.981217,1.51,10.76,-13.34
75,7769,0.002846,0.040054,0.984224,-14.48,-1.23,-12.33
76,7869,0.003537,0.033753,0.986982,3.51,-0.24,-17.34
77,7969,0.003392,0.028928,0.988978,-4.49,-4.24,-3.34
78,8069,0.005374,0.023692,0.990474,0.51,-19.24,25.66
79,8169,0.006674,0.019443,0.992587,-4.49,6.76,-19.34
80,8279,0.007779,0.016142,0.994218,4.51,3.76,6.66
81,8379,0.008279,0.013153,0.995404,-0.49,-3.24,-7.34
82,8479,0.008851,0.010722,0.996192,-6.50,-1.25,7.65
83,8579,0.009410,0.008510,0.997392,-2.48,-3.23,-3.33
84,8679,0.009647,0.006849,0.997717,-3.50,-1.25,5.65
85,8839,0.010251,0.005419,0.997902,-2.49,-5.24,-1.34
86,8939,0.010252,0.004588,0.998022,-5.50,1.75,-10.35
87,9049,0.010784,0.003149,0.999021,-2.50,1.75,0.65
88,9149,0.010906,0.002128,0.998918,-1.49,-8.24,-2.34
89,9249,0.011029,0.001296,0.998740,-5.49,-2.24,-6.34
90,9349,0.010602,0.000864,0.999009,1.51,-0.24,-4.34
91,9449,0.010697,0.000057,0.999439,-7.50,6.75,6.65
92,9559,0.010191,-0.000281,0.999768,-0.50,0.75,-7.35
93,9659,0.010421,-0.001026,1.000048,-1.48,-8.23,2.67
94,9759,0.012869,-0.002264,1.000395,4.51,4.76,-2.34
95,9869,0.010573,-0.002272,1.000416,-2.49,0.76,6.66
96,9969,0.012100,-0.002517,1.000800,1.52,1.77,-6.33
97,10069,0.010780,-0.002945,1.000321,0.50,2.75,-2.35
98,10169,0.011745,-0.002485,1.000444,-4.49,5.76,10.66
99,10269,0.011010,-0.002734,1.000549,1.51,-2.24,-0.34
100,10369,0.011410,-0.002763,1.000620,-0.49,2.76,10.66
1,0,-0.004869,0.016443,1.018501,-3284.47,2568.78,-177.32
2,96,-0.008808,0.013574,1.038346,-2608.49,-1300.24,-57.34
3,196,-0.006277,0.037173,0.971865,-4991.49,1350.76,-11.34
4,296,-0.007257,0.024072,0.984478,34.53,82.78,-594.32
5,406,-0.034531,0.020974,0.972733,4038.52,1094.77,1389.67
6,506,0.013313,0.018121,1.039195,9300.51,-1448.24,1382.66
7,606,0.000679,0.034941,0.999156,4186.52,-2333.23,1039.67
8,706,-0.028426,0.065900,1.010605,213.51,464.76,-376.34
9,806,-0.028318,0.110086,1.021985,-164.48,557.77,145.67
10,906,-0.024106,0.138911,1.008935,-3700.48,1103.77,-395.33
11,1016,-0.011206,0.130361,0.971237,-6860.47,579.78,-38.32
12,1116,-0.004800,0.101926,0.976932,-1081.48,-41.23,-849.33
13,1216,0.014506,0.079149,0.959983,3054.51,1019.76,1672.66
14,1316,0.047505,0.067771,1.055732,7541.51,-4122.24,1781.66
15,1426,0.018810,0.143427,0.988657,1374.51,3932.76,-472.34
16,1526,0.017436,0.157509,0.987875,-106.49,1400.76,-352.34
17,1626,0.004714,0.173031,1.098136,-1755.48,-1419.23,203.67
18,1726,0.013694,0.162879,1.151574,-973.48,1962.77,-8.33
19,1836,0.005196,0.179042,1.083746,-6535.48,-2070.23,-536.33
20,1936,-0.000270,0.138746,1.064673,-2881.48,-185.23,-1131.33
21,2036,-0.021103,0.106673,0.969341,3692.53,-936.22,451.68
22,2196,-0.017076,0.133520,0.974441,8463.52,-964.23,1051.67
23,2296,0.020789,0.173020,0.978538,2212.52,2230.77,-243.33
24,2396,0.024447,0.188888,0.972481,-55.48,967.77,-183.33
25,2496,0.010673,0.158779,1.007378,-2364.48,1887.77,-210.33
26,2596,0.022092,0.151607,0.966434,-534.49,-811.24,-29.34
27,2696,0.015062,0.164773,0.926011,-6628.48,1047.77,-389.33
28,2796,0.014159,0.144873,0.925672,648.53,-25.22,-260.32
29,2906,0.008758,0.097728,0.922803,1863.51,-780.24,1041.66
30,3006,-0.007331,0.072852,1.006496,5330.52,-5879.23,1629.67
31,3106,0.198609,0.099845,1.164840,2844.52,1957.77,334.67
32,3216,0.172756,0.122754,1.139205,74.53,1303.78,-221.32
33,3316,0.139153,0.166963,1.122543,-339.49,622.76,-592.34
34,3416,0.135639,0.190662,1.013257,-3167.48,1471.77,-224.33
35,3516,0.124761,0.168471,1.039253,-3660.49,1931.76,-350.34
36,3616,0.099730,0.156073,0.991844,-5899.48,-759.24,-978.34
37,3726,0.103009,0.141433,0.867354,2615.53,-1697.22,745.68
38,3826,0.060898,0.131791,0.864278,4055.52,-4118.23,1448.67
39,3926,0.063502,0.165856,0.879425,2722.52,-1678.23,600.67
40,4026,0.059580,0.178002,0.896072,-31.49,1566.76,-352.34
41,4136,0.022684,0.217696,0.885612,-271.49,182.76,-306.34
42,4296,0.008937,0.175740,0.946265,-2679.48,-823.23,-181.33
43,4396,0.009630,0.174410,0.888176,-5284.47,1683.78,-292.32
44,4496,0.004542,0.133966,0.917188,314.51,-3.24,-487.34
45,4606,-0.048415,0.145274,0.887155,2606.52,-1934.23,1607.67
46,4706,-0.037783,0.138773,0.997966,8738.51,838.76,826.66
47,4806,-0.036857,0.178181,1.008551,1667.52,4958.77,-648.33
48,4906,-0.026530,0.187965,1.006122,516.53,1406.78,-294.32
49,5016,-0.016269,0.227227,1.092131,-790.47,1187.78,-264.32
50,5116,-0.020767,0.255216,1.077238,-3793.48,820.77,-470.33
51,5216,-0.018530,0.252383,1.037680,-5382.48,-2737.23,-134.33
52,5326,-0.004818,0.208154,1.045530,-2201.46,-437.21,-799.31
53,5426,-0.025518,0.182443,0.914086,4460.51,-1211.24,705.66
54,5526,-0.047562,0.166356,0.868954,4548.52,-363.23,1877.67
55,5626,-0.025394,0.198147,0.886256,4255.51,-1420.24,922.66
56,5726,-0.022262,0.206145,0.900852,24.52,1333.77,-482.33
57,5826,-0.011085,0.222923,1.045297,119.51,-976.24,500.66
58,5926,-0.000687,0.262086,1.037722,-184.48,1898.77,-167.33
59,6036,0.017709,0.213508,1.045584,-5616.49,-1312.24,-191.34
60,6136,0.014138,0.174762,1.049575,-2885.48,-326.23,-808.33
61,6246,0.004309,0.184107,1.036286,-4851.48,-270.23,-635.33
62,6406,0.006831,0.144077,1.032150,-493.49,24.76,-384.34
63,6506,0.007162,0.127812,1.028268,-21.49,6.76,30.66
64,6606,0.008469,0.108256,1.024090,3.53,-2.22,-39.32
65,6716,0.010185,0.092586,1.021381,-3.48,-7.23,37.67
66,6816,0.010654,0.078094,1.018492,2.52,0.77,-38.33
67,6916,0.010851,0.066930,1.016037,-2.47,-5.22,16.68
68,7016,0.010836,0.056470,1.013766,9.53,8.78,-13.32
69,7116,0.011061,0.048201,1.012129,1.51,-4.24,14.66
70,7216,0.011325,0.041374,1.010152,-5.48,8.77,-18.33
71,7316,0.011751,0.034601,1.008966,-1.48,8.77,12.67
72,7426,0.011289,0.029118,1.007939,-2.49,12.76,-25.34
73,7526,0.012288,0.024824,1.007341,-6.49,-11.24,24.66
74,7626,0.012076,0.020899,1.006430,-6.48,-3.23,-28.33
75,7736,0.012627,0.016922,1.005839,-7.49,-1.24,7.66
76,7836,0.012088,0.014201,1.005427,-5.49,-1.24,-12.34
77,7936,0.012876,0.011705,1.003558,-1.47,-2.22,14.68
78,8036,0.013985,0.009950,1.003398,1.52,3.77,-13.33
79,8136,0.012932,0.008403,1.003170,-3.48,3.77,8.67
80,8236,0.013172,0.006977,1.002555,-5.50,-0.25,-3.35
81,8336,0.012808,0.005968,1.002032,0.52,-5.23,14.67
82,8506,0.012883,0.004981,1.002027,-3.49,5.76,-10.34
83,8606,0.013204,0.003850,1.001767,-3.48,-1.23,6.67
84,8706,0.013091,0.002650,1.001160,3.50,3.75,-13.35
85,8806,0.013033,0.002015,1.001305,-0.49,3.76,-2.34
86,8906,0.012928,0.001365,1.001409,-2.48,6.77,-8.33
87,9006,0.012638,0.001124,1.001845,-2.48,7.77,-1.33
88,9106,0.012647,0.000809,1.002216,4.51,7.76,0.66
89,9206,0.012948,0.000340,1.002111,-8.47,5.78,-1.32
90,9316,0.012856,0.000509,1.002112,-2.49,-2.24,2.66
91,9416,0.013125,0.000762,1.002333,4.50,-6.25,3.65
92,9516,0.011340,0.000264,1.001496,-4.49,-5.24,-4.34
93,9616,0.013595,0.000115,1.001718,-1.49,-2.24,26.66
94,9716,0.013754,-0.000140,1.001192,-5.49,13.76,-45.34
95,9816,0.013486,0.000082,1.000947,-4.48,-5.23,33.67
96,9916,0.014485,-0.000204,1.001142,-0.48,14.77,-36.33
97,10016,0.013650,-0.000210,1.000776,2.52,0.77,15.67
98,10116,0.014240,-0.000362,1.000776,-11.50,9.75,-24.35
99,10216,0.012086,-0.000362,1.001289,-3.48,-1.23,25.67
100,10326,0.013002,-0.000912,1.001432,-12.48,3.77,-26.33
1,0,0.006867,0.006757,0.981367,-2451.50,-1138.25,-67.35
2,94,0.015175,0.019476,0.936707,-4568.51,865.74,252.64
3,194,-0.001786,0.002016,0.958165,297.49,0.74,-742.36
4,294,-0.018346,0.017991,0.827685,4451.50,-1836.25,622.65
5,454,-0.002832,0.078574,0.867876,5780.48,-1009.27,887.63
6,554,0.001218,0.095352,0.898925,1011.48,1171.73,-601.37
7,654,0.003123,0.122174,0.928082,-74.52,579.73,-357.37
8,754,0.017596,0.156985,0.821085,-650.51,1538.74,30.64
9,864,0.030044,0.139314,0.880375,-3674.52,2050.73,-175.37
10,964,0.019275,0.130319,0.852055,-5758.50,-810.25,-561.35
11,1064,0.017409,0.121739,0.878355,-180.51,29.74,64.64
12,1164,-0.030905,0.109887,0.876851,4283.50,1399.75,1331.65
13,1264,0.010517,0.094337,0.980547,10505.49,-1926.26,1321.64
14,1364,-0.038448,0.174962,0.893549,275.50,2408.75,-349.35
15,1464,-0.026602,0.189349,0.906392,-83.51,1326.74,-402.36
16,1564,-0.047752,0.220529,0.943236,-1978.51,-1323.26,12.64
17,1734,-0.020557,0.240385,0.839441,-1983.50,513.75,8.65
18,1834,-0.024212,0.220550,0.877319,-7698.52,433.73,-416.37
19,1934,-0.023510,0.173844,0.888147,179.49,-61.26,-91.36
20,2034,0.002099,0.160969,0.884863,2480.49,-3833.26,1778.64
21,2144,0.299504,0.124317,1.061451,6786.47,7031.72,-290.38
22,2244,0.259119,0.127496,1.039258,1837.48,260.73,91.63
23,2344,0.218987,0.136496,1.031398,616.48,1387.73,-298.37
24,2444,0.175006,0.141217,1.043193,-2079.52,-138.27,-692.37
25,2554,0.148884,0.144057,1.000521,-4402.50,-2299.25,-261.35
26,2654,0.108442,0.146619,0.939109,-6349.51,-598.26,822.64
27,2754,0.095819,0.124113,0.943342,404.48,-167.27,-705.37
28,2854,0.055482,0.080612,0.941575,1094.48,-753.27,1273.63
29,2954,0.038316,0.050264,1.030655,5374.49,-6284.26,1622.64
30,3054,0.230139,0.081524,1.185375,3223.50,2573.75,-162.35
31,3214,0.180677,0.129684,1.148640,5.50,471.75,-527.35
32,3314,0.168719,0.155788,1.049446,-3310.51,1686.74,-167.36
33,3414,0.153060,0.136155,1.078016,-3261.52,1988.73,-305.37
34,3514,0.131054,0.129098,1.017156,-5504.49,-891.24,-251.34
35,3624,0.116394,0.120939,1.012502,-92.52,-38.27,108.63
36,3724,0.053342,0.150369,0.925819,4409.50,-884.25,1587.65
37,3824,0.073649,0.211548,0.923275,10206.49,-1547.27,1068.63
38,3924,0.058610,0.214770,0.937335,643.50,2033.75,-559.35
39,4034,0.053902,0.223808,0.955293,59.49,754.74,-302.36
40,4134,0.059476,0.239474,0.850238,-508.51,1277.74,137.64
41,4234,0.070037,0.226221,0.827042,-4639.51,1180.74,-352.36
42,4404,0.056986,0.176925,0.865242,539.48,47.73,-323.37
43,4504,0.082551,0.147731,0.827656,2443.48,-766.27,486.63
44,4604,0.060866,0.134580,0.891014,4897.48,-5789.27,700.63
45,4704,0.083322,0.167603,0.924526,1352.48,-1795.27,571.63
46,4804,0.068626,0.181647,0.928492,280.48,1744.73,-426.37
47,4914,0.019422,0.213964,0.962388,-2414.51,-1628.26,-80.36
48,5014,0.024236,0.190970,1.002662,-3509.50,2073.75,-110.35
49,5114,0.007033,0.201545,1.007176,-2309.51,1258.74,-292.36
50,5214,0.017055,0.157507,1.002334,-5111.53,-791.28,-699.38
51,5324,0.006623,0.134393,0.884401,4647.50,-1218.25,582.65
52,5424,-0.027549,0.133405,0.843044,4676.50,181.75,1572.65
53,5524,-0.017466,0.149613,0.859599,6711.48,-1834.27,914.63
54,5624,-0.007393,0.161302,0.877993,-1198.50,587.75,-170.35
55,5794,-0.007090,0.154080,0.862078,-1312.51,2172.74,210.64
56,5894,0.000218,0.134685,0.867722,-1620.51,395.74,70.64
57,5994,0.003224,0.142314,0.863913,-4689.52,-50.27,-211.37
58,6094,0.008106,0.124867,0.880249,-68.50,-13.25,92.65
59,6194,-0.047382,0.133493,0.865589,3374.49,-2182.26,1183.64
60,6294,-0.029362,0.188285,0.915787,9065.49,1075.74,811.64
61,6404,-0.034296,0.188479,0.925422,1165.49,961.74,-335.36
62,6504,-0.025343,0.197652,0.928522,33.48,758.73,-161.37
63,6604,-0.004861,0.243956,1.011541,148.49,641.74,170.64
64,6704,-0.024548,0.281612,1.002510,-2875.50,1768.75,-187.35
65,6814,0.011270,0.237118,0.974363,-5924.50,-1034.25,-325.35
66,6914,0.015988,0.208911,0.985412,-3999.51,-674.26,-1266.36
67,7014,0.017875,0.196489,0.979513,-4450.51,-134.26,-636.36
68,7114,0.024477,0.161907,0.979608,-1576.51,-41.26,-232.36
69,7274,0.024083,0.135881,0.981831,-10.52,1.73,10.63
70,7374,0.023272,0.114785,0.984948,-1.51,8.74,-74.36
71,7474,0.020587,0.095882,0.987212,-4.50,3.75,-12.35
72,7584,0.019018,0.080419,0.989613,-4.52,-1.27,10.63
73,7684,0.017850,0.067898,0.991471,-0.51,-6.26,11.64
74,7784,0.017261,0.056798,0.993123,-16.49,11.76,-29.34
75,7884,0.016722,0.047088,0.994033,8.49,8.74,-0.36
76,7984,0.015935,0.039109,0.995081,0.48,-1.27,-7.37
77,8094,0.015870,0.032620,0.995917,-8.51,-8.26,8.64
78,8194,0.014863,0.026482,0.996921,1.48,-0.27,-17.37
79,8294,0.020141,0.023461,0.998305,-5.51,-6.26,52.64
80,8394,0.015123,0.021352,0.995801,-21.52,60.73,81.63
81,8494,0.019392,0.016281,0.997060,-4.51,5.74,23.64
82,8604,0.016721,0.013179,0.997159,20.49,27.74,-457.36
83,8704,0.017710,0.011697,0.998031,49.48,15.73,-331.37
84,8804,0.016884,0.004778,1.009649,107.49,63.74,-1625.36
85,8914,0.021895,0.002303,1.013500,212.48,-119.27,-3611.37
86,9014,0.020900,0.010527,0.987037,462.49,-149.26,-4159.36
87,9114,0.004727,0.014441,0.967693,85.48,-210.27,-1145.37
88,9214,0.006710,0.011835,0.980437,3.48,48.73,-426.37
89,9374,0.008267,0.005720,0.987150,30.48,26.73,-784.37
90,9474,0.006825,0.003946,0.987473,18.49,-3.26,-103.36
91,9574,0.008474,0.002750,0.989194,9.48,0.73,-118.37
92,9684,0.007514,0.001055,0.990766,-7.52,-0.27,-13.37
93,9784,0.007724,-0.000074,0.992341,2.49,6.74,3.64
94,9884,0.008817,-0.001107,0.992507,-1.53,-0.28,-63.38
95,9994,0.008903,-0.001491,0.994480,-0.53,2.72,-83.38
96,10094,0.008703,-0.001634,0.995314,8.48,3.73,-67.37
97,10194,0.008569,-0.001902,0.996097,5.48,-6.27,-1.37
98,10294,0.009664,-0.002203,0.996414,0.48,-1.27,-18.37
99,10394,0.008946,-0.002587,0.997270,0.48,1.73,1.63
100,10494,0.008392,-0.003353,0.997851,-5.51,10.74,-9.36
1,0,-0.013788,0.053961,1.001655,-8114.51,868.74,10.64
2,100,-0.014247,0.086021,0.982718,-1397.53,358.72,-232.38
3,200,-0.005940,0.106534,0.982918,167.47,12.72,32.62
4,300,-0.006552,0.162605,1.031391,-1755.54,1122.71,-346.39
5,410,-0.007126,0.152789,1.025718,-3456.53,-2042.28,-483.38
6,510,0.004892,0.138934,0.980576,-4540.53,1067.72,-321.38
7,610,0.002253,0.118734,0.980749,-228.55,-1.30,-796.40
8,710,-0.001656,0.116982,0.839484,4527.47,-298.28,686.62
9,820,-0.027446,0.117561,0.837439,3528.48,-4067.27,1943.63
10,920,-0.014303,0.152771,0.858717,1562.46,94.71,531.61
11,1020,-0.003241,0.166402,0.877242,-346.54,2019.71,-550.39
12,1130,0.010923,0.181890,1.025173,-105.52,-2036.27,430.63
13,1230,0.013587,0.215012,1.037553,-577.52,2211.73,48.63
14,1330,-0.009069,0.230862,0.978295,-5823.53,-2575.28,-854.38
15,1430,-0.011555,0.218021,0.975148,-2598.54,-648.29,-1161.39
16,1530,-0.028353,0.191799,0.851899,4219.45,-607.30,367.60
17,1630,-0.049937,0.180955,0.804650,4554.48,-860.27,2412.63
18,1730,-0.039280,0.270962,0.718382,9113.45,-1503.30,1222.60
19,1840,-0.017312,0.275635,0.748382,-1175.53,-718.28,154.62
20,1940,-0.040112,0.272449,0.803801,-269.53,-2016.28,137.62
21,2040,-0.058504,0.257930,0.770816,-1425.53,2357.72,409.62
22,2200,-0.032810,0.236946,0.758270,-6705.53,2540.72,-1048.38
23,2300,-0.019302,0.202026,0.793877,119.46,37.71,175.61
24,2400,-0.041731,0.201678,0.757071,4051.46,686.71,666.61
25,2500,0.001149,0.181679,0.895983,10230.47,-723.28,1204.62
26,2600,-0.001093,0.199837,0.911335,796.47,91.72,-305.38
27,2710,-0.005690,0.204889,0.919294,131.47,1423.72,-349.38
28,2810,-0.008042,0.218979,1.039824,-1036.52,-1194.27,290.63
29,2910,-0.007093,0.208141,1.097760,-1253.54,2040.71,-19.39
30,3010,-0.041332,0.230276,1.049979,-3685.53,-626.28,-569.38
31,3120,-0.029841,0.178632,1.038350,-1873.53,-585.28,-259.38
32,3220,-0.025512,0.144659,1.026342,770.47,228.72,282.62
33,3320,-0.009253,0.128215,0.995444,2944.46,-2786.29,1889.61
34,3420,-0.004844,0.159574,1.050241,6164.48,-1285.27,630.63
35,3530,0.006502,0.169091,1.038830,644.47,1907.72,-335.38
36,3630,-0.030327,0.200288,1.059379,-1756.55,-1309.30,-111.40
37,3730,-0.011606,0.194267,1.054305,-3587.53,1698.72,-328.38
38,3830,-0.015615,0.198104,1.058049,-2065.53,1864.72,-317.38
39,3940,-0.009429,0.147733,1.064674,-3497.54,-127.29,-1134.39
40,4040,-0.009407,0.143737,1.055822,-11.53,-34.28,124.62
41,4140,-0.058937,0.154695,1.003015,2739.46,-1952.29,1563.61
42,4300,-0.037627,0.188711,0.991894,2797.47,-2149.28,651.62
43,4400,-0.037477,0.196091,0.994599,477.47,1449.72,-468.38
44,4500,-0.025575,0.206283,1.007391,156.48,796.73,-360.37
45,4600,-0.013372,0.219926,0.908712,-55.53,968.72,33.62
46,4700,0.006596,0.220921,0.846404,-4372.54,799.71,-482.39
47,4810,-0.002378,0.201258,0.838011,-6050.53,-514.28,-1013.38
48,4910,-0.001802,0.149920,0.878813,921.47,30.72,300.62
49,5010,0.044391,0.120492,0.899323,2861.47,-1346.28,2103.62
50,5110,0.041888,0.135010,0.968594,5828.47,-2150.28,818.62
51,5220,0.038186,0.162586,0.956356,177.48,1330.73,-564.37
52,5320,0.039581,0.170461,0.960382,-63.52,930.73,-289.37
53,5420,0.033570,0.148462,0.953349,219.47,1297.72,-44.38
54,5520,0.053455,0.179677,0.845436,-1188.52,260.73,-231.37
55,5630,0.040382,0.161954,0.881554,-6385.52,690.73,-917.37
56,5730,0.032695,0.128944,0.899053,-8.53,-69.28,-25.38
57,5830,0.022315,0.115205,0.914348,2878.46,-4338.29,1221.61
58,5930,0.011130,0.168859,0.939433,7950.48,-682.27,612.63
59,6030,0.011529,0.178997,0.943379,1335.46,955.71,-240.39
60,6130,0.010495,0.185600,0.951842,171.48,715.73,-182.37
61,6240,0.000772,0.161312,0.978170,-2699.53,1867.72,-59.38
62,6340,0.009280,0.139092,0.968194,-1221.54,-994.29,-164.39
63,6440,0.004408,0.161349,0.919029,-5661.54,864.71,-424.39
64,6540,-0.001326,0.137274,0.931620,-1245.52,-64.27,-773.37
65,6710,0.011745,0.126278,0.937343,2865.48,-2536.27,2675.63
66,6810,0.014285,0.140166,0.988660,5310.46,-1506.29,563.61
67,6910,0.027523,0.166107,0.986248,603.46,2381.71,-480.39
68,7010,0.047399,0.203300,1.008660,-331.54,879.71,-428.39
69,7120,0.047392,0.193001,1.010443,-4036.53,1771.72,-314.38
70,7220,0.042132,0.191644,1.045376,-1221.53,2239.72,-157.38
71,7320,0.043063,0.154016,1.050936,-6487.54,-622.29,-953.39
72,7480,0.047314,0.127544,1.048154,-4375.52,-119.27,-492.37
73,7580,0.044721,0.103267,1.047950,-1064.53,-158.28,-866.38
74,7680,0.037389,0.087977,1.040563,-23.54,0.71,-89.39
75,7780,0.032751,0.074560,1.033441,5.47,-4.28,-15.38
76,7880,0.029046,0.063339,1.028596,-3.54,-10.29,32.61
77,7990,0.027581,0.053252,1.024624,-0.54,3.71,-21.39
78,8090,0.024652,0.044952,1.021376,0.47,8.72,-0.38
79,8190,0.023444,0.037696,1.018213,-2.53,12.72,-7.38
80,8290,0.021062,0.031657,1.014682,-1.52,1.73,9.63
81,8390,0.020099,0.026248,1.012650,-0.54,4.71,-1.39
82,8500,0.018183,0.021853,1.010576,-0.52,-7.27,-10.37
83,8600,0.017743,0.018043,1.009289,-2.53,2.72,1.62
84,8700,0.016821,0.014732,1.008140,3.46,-0.29,7.61
85,8810,0.016109,0.012320,1.007273,-2.55,-4.30,-7.40
86,8910,0.015523,0.009995,1.006445,-11.54,7.71,-6.39
87,9010,0.015281,0.007488,1.005137,-0.53,3.72,1.62
88,9110,0.014490,0.005980,1.004885,-8.52,-0.27,-1.37
89,9210,0.014239,0.004716,1.003939,-0.53,8.72,7.62
90,9310,0.013933,0.003038,1.003867,-4.54,0.71,-4.39
91,9410,0.012868,0.002234,1.003037,4.48,-4.27,1.63
92,9520,0.012823,0.001257,1.002863,-5.54,4.71,-15.39
93,9620,0.012693,0.000445,1.002971,-0.53,7.72,-14.38
94,9720,0.011100,-0.000226,1.002751,4.46,-1.29,-6.39
95,9880,0.010863,-0.000962,1.002949,-10.53,3.72,6.62
96,9980,0.010459,-0.001697,1.003099,-8.54,-0.29,-20.39
97,10080,0.012881,-0.002304,1.002530,1.45,10.70,-8.40
98,10180,0.010252,-0.002472,1.003109,3.45,1.70,-28.40
99,10280,0.010874,-0.002651,1.003180,-10.55,-2.30,26.60
100,10380,0.010853,-0.002511,1.002654,-3.53,-1.28,-22.38
1,0,0.001647,0.061486,0.986457,69.46,1.71,19.61
2,99,0.002113,0.113969,0.974926,-4.54,-1.29,10.61
3,199,0.005036,0.158323,0.964393,-3.54,4.71,-26.39
4,299,0.005488,0.196720,0.954322,-3.56,-4.31,0.59
5,409,0.005854,0.228899,0.946715,0.46,3.71,-3.39
6,509,0.032587,0.250136,0.862099,-1859.54,-1319.29,-159.39
7,609,0.004865,0.246434,0.825845,-8084.55,-917.30,-447.40
8,709,0.023836,0.251839,0.929739,-3540.55,187.70,-220.40
9,809,-0.059446,0.230395,1.006093,5.46,817.71,-429.39
10,909,-0.052361,0.230516,0.999435,-101.53,12.72,-19.38
11,1009,-0.040791,0.236733,1.017983,-2969.55,2018.70,-67.40
12,1169,-0.071697,0.235317,1.026553,-3109.55,230.70,-510.40
13,1269,-0.051441,0.188648,1.026550,-3680.54,-536.29,-402.39
14,1369,-0.055994,0.166117,0.889913,4075.45,-561.30,566.60
15,1479,-0.072737,0.150427,0.880908,4103.44,-4059.31,1586.59
16,1579,-0.070506,0.178601,0.882701,3825.45,-2427.30,900.60
17,1679,-0.046016,0.185391,0.904971,-1035.55,2198.70,-852.40
18,1779,-0.030948,0.195833,0.915332,-169.55,-92.30,67.60
19,1889,-0.004151,0.207564,0.868218,-2856.53,1649.72,-272.38
20,1989,0.007421,0.184559,0.928879,-3202.55,1974.70,-268.40
21,2089,-0.005064,0.170332,0.896505,-5944.53,-679.28,-1134.38
22,2199,-0.001083,0.140552,0.791479,3941.45,-1674.30,536.60
23,2299,-0.025769,0.129887,0.742856,3046.45,649.70,1556.60
24,2399,-0.011266,0.170370,0.743494,4513.47,-1124.28,892.62
25,2499,-0.010347,0.185463,0.780017,4.45,1714.70,-346.40
26,2599,0.025061,0.210158,0.831643,-118.53,797.72,-460.38
27,2699,0.042615,0.231514,0.747900,-1372.54,576.71,102.61
28,2799,0.051492,0.225424,0.764517,-3810.56,1338.69,-389.41
29,2909,0.058709,0.187710,0.775859,-5333.54,-806.29,-848.39
30,3009,0.047118,0.168415,0.813149,-141.54,-31.29,-47.39
31,3169,0.009306,0.159503,0.798794,4200.46,-3179.30,1774.60
32,3279,0.202367,0.156542,0.988292,1077.44,-95.31,520.59
33,3379,0.167854,0.171750,0.987033,316.45,1187.70,-408.40
34,3479,0.170269,0.228311,1.040144,316.46,147.71,401.61
35,3579,0.132240,0.279354,0.997580,-4178.55,1200.70,-433.40
36,3679,0.139227,0.231920,1.013312,-4888.55,-1681.30,-377.40
37,3789,0.123451,0.187500,1.018353,-1207.53,-62.28,-602.38
38,3889,0.118428,0.175927,0.900561,3303.47,-1462.28,779.62
39,3989,0.070377,0.179164,0.850755,3065.45,-2617.30,1531.60
40,4089,0.073021,0.213647,0.854490,2004.46,-1712.29,480.61
41,4199,0.063623,0.220271,0.870573,350.45,1233.70,-363.40
42,4299,0.057393,0.232676,1.022818,202.45,-939.30,480.60
43,4399,0.055045,0.265321,1.025004,87.44,1934.69,-146.41
44,4499,0.033695,0.269577,0.978028,-6952.55,-1413.30,-716.40
45,4609,0.028584,0.230367,0.983399,-2489.55,9.70,-565.40
46,4709,0.021989,0.186418,0.922431,3725.46,-615.29,352.61
47,4809,0.023248,0.153053,0.899741,4394.45,1348.70,1617.60
48,4909,0.031735,0.184055,0.920608,5660.45,-1714.30,985.60
49,5019,0.028897,0.198615,0.922196,33.46,1379.71,-403.39
50,5119,-0.004791,0.231719,0.908092,-360.56,216.69,-243.41
51,5279,-0.014346,0.191229,0.960849,-2670.55,-710.30,-232.40
52,5389,-0.007709,0.196253,0.920219,-6578.53,796.72,-594.38
53,5489,-0.005748,0.167986,0.926077,678.45,70.70,-360.40
54,5589,-0.031785,0.152492,0.908479,3806.45,1379.70,1665.60
55,5689,0.006856,0.124802,1.008163,9886.45,-2298.30,1329.60
56,5789,-0.069833,0.105458,1.139055,-742.55,445.70,-46.40
57,5889,-0.055202,0.124831,1.109853,-2296.54,-305.29,64.61
58,5989,-0.027166,0.155068,1.177848,-1310.53,287.72,184.62
59,6099,-0.016555,0.182802,1.101702,-1671.55,1459.70,-260.40
60,6199,-0.014458,0.144559,1.075723,-6030.55,85.70,-351.40
61,6299,-0.017545,0.111522,1.075815,382.46,-51.29,52.61
62,6409,-0.025077,0.069048,1.073860,3648.45,1050.70,1228.60
63,6509,0.023947,0.039116,1.168604,8171.46,-4066.29,1378.61
64,6609,0.065068,0.118612,1.143210,3725.45,4938.70,-359.40
65,6719,0.058017,0.133815,1.120178,4.44,919.69,-298.41
66,6819,0.044461,0.151095,1.215408,-1819.54,-2237.29,563.61
67,6919,0.050132,0.142364,1.259495,-906.55,1618.70,-132.40
68,7019,0.011703,0.184949,1.174691,-3369.54,51.71,-639.39
69,7119,0.019651,0.159293,1.146406,-4755.56,380.69,-1141.41
70,7219,0.016135,0.125529,1.127894,24.47,53.72,-151.38
71,7379,-0.003828,0.107212,1.110730,3698.45,-2768.30,1787.60
72,7479,0.027819,0.148625,1.116319,5286.47,-1343.28,972.62
73,7579,0.021082,0.162658,1.102247,257.46,1388.71,-491.39
74,7679,0.043718,0.223000,1.140529,-100.55,-278.30,513.60
75,7789,0.021082,0.210478,1.155839,-5550.56,149.69,-423.41
76,7889,0.050456,0.184490,1.093449,-4713.56,407.69,-309.41
77,7989,0.049204,0.142149,1.099452,-2499.55,-297.30,-571.40
78,8089,0.047187,0.158857,1.059638,-1899.53,94.72,-307.38
79,8199,0.026577,0.132318,1.053976,-3358.54,-666.29,-501.39
80,8299,0.021673,0.103900,1.048358,69.45,31.70,-146.40
81,8399,0.020069,0.086245,1.040506,25.46,13.71,-16.39
82,8509,0.017955,0.072703,1.035004,-1.54,4.71,17.61
83,8609,0.017824,0.061192,1.030181,-5.55,-2.30,18.60
84,8709,0.017694,0.050694,1.025531,4.45,1.70,-15.40
85,8809,0.016944,0.042412,1.021891,0.46,-2.29,-9.39
86,8909,0.016140,0.034987,1.019401,-1.56,7.69,-6.41
87,9009,0.015494,0.028823,1.016680,-1.55,3.70,2.60
88,9109,0.015824,0.023601,1.014331,-5.54,2.71,-3.39
89,9209,0.015171,0.018888,1.012444,3.46,-0.29,-8.39
90,9319,0.015348,0.015285,1.009924,-0.54,0.71,-10.39
91,9419,0.015059,0.012461,1.008515,-1.55,0.70,-3.40
92,9579,0.015069,0.009437,1.007189,6.45,8.70,-0.40
93,9679,0.014858,0.006977,1.006428,-0.55,3.70,-9.40
94,9779,0.014660,0.005142,1.005836,-2.56,2.69,-2.41
95,9889,0.014529,0.003307,1.005076,-3.56,3.69,-5.41
96,9989,0.014381,0.001840,1.004376,1.46,0.71,1.61
97,10089,0.014292,0.001032,1.004312,-4.55,-0.30,-14.40
98,10189,0.014014,0.000016,1.004312,-5.56,-0.31,4.59
99,10289,0.014053,-0.000683,1.004312,-2.55,0.70,2.60
100,10389,0.014251,-0.001717,1.003983,0.44,1.69,-6.41
1,0,0.001829,-0.000770,0.999731,-0.57,8.68,-1.42
2,96,0.010068,0.006559,1.012870,3220.44,-1112.31,-340.41
3,196,-0.015834,0.004383,1.012410,9792.42,-93.33,1161.57
4,296,0.029313,0.000246,0.962672,12203.44,1238.69,2519.59
5,406,0.034491,0.096576,0.962693,5151.44,934.69,801.59
6,506,0.028986,0.148427,0.955019,763.43,39.68,-63.42
7,616,0.026193,0.189938,0.944890,-41.56,4.69,27.59
8,716,0.026217,0.223848,0.938386,1.42,-3.33,6.57
9,816,0.024553,0.252214,0.932400,-0.56,6.69,-6.41
10,916,0.023798,0.275923,0.927696,3.43,-13.32,-6.42
11,1016,0.022699,0.296386,0.924412,-7.56,2.69,-10.41
12,1126,0.039178,0.295543,0.841640,-3399.56,-1012.31,-157.41
13,1226,0.012352,0.277120,0.822535,-8131.57,-3250.32,-506.42
14,1326,0.032800,0.300516,0.886367,-3147.56,712.69,-1043.41
15,1436,0.027658,0.293524,0.885565,-642.57,-131.32,-195.42
16,1536,0.024588,0.282746,1.028036,-680.56,-1769.31,512.59
17,1636,0.028039,0.272230,1.076973,-1182.56,2140.69,64.59
18,1736,-0.018722,0.279917,1.039780,-3660.57,-1646.32,-596.42
19,1836,-0.001304,0.225916,1.051507,-2706.58,-119.33,-423.43
20,1936,0.004126,0.207665,1.040985,-34.57,-71.32,16.58
21,2096,-0.014054,0.182263,1.030595,3944.43,-4790.32,1221.58
22,2196,-0.000631,0.209232,1.012609,1946.45,-1724.30,488.60
23,2296,-0.003212,0.210384,1.014642,190.43,1389.68,-439.42
24,2396,-0.021152,0.239414,1.009485,-518.57,1163.68,-772.42
25,2506,-0.009174,0.208591,1.039178,-3833.57,1819.68,-254.42
26,2606,-0.021606,0.214582,1.032520,-2324.57,1115.68,-506.42
27,2706,-0.004451,0.173201,1.019335,-5338.56,-1026.31,-570.41
28,2806,-0.017023,0.123105,0.960026,3872.44,-958.31,368.59
29,2916,-0.046130,0.120934,0.904816,4216.44,-1897.31,1248.59
30,3016,-0.029856,0.160435,0.905934,3584.42,-1361.33,850.57
31,3116,-0.020710,0.168686,0.926770,-41.57,1579.68,-393.42
32,3226,-0.019199,0.173649,0.938456,142.42,1195.67,-397.43
33,3326,-0.020605,0.158770,0.919935,529.44,1035.69,154.59
34,3426,0.000538,0.190855,0.819542,-2096.56,407.69,-160.41
35,3526,-0.002968,0.181013,0.855662,-7558.57,250.68,-474.42
36,3626,-0.003550,0.147707,0.854394,620.45,-144.30,-112.40
37,3736,0.046566,0.119141,0.853444,2198.42,386.67,1632.57
38,3836,0.039396,0.133074,0.918811,4989.42,-1932.33,792.57
39,3936,0.033448,0.156526,0.927882,592.44,1662.69,-571.41
40,4036,0.024309,0.164137,0.932718,-43.58,55.67,-61.43
41,4196,0.027381,0.197523,0.964094,-777.55,2259.70,111.60
42,4296,0.011132,0.210447,0.911789,-5701.57,-2974.32,-581.42
43,4396,0.017371,0.192520,0.916915,-2222.58,-298.33,-797.43
44,4496,0.021209,0.131250,0.947419,975.44,-81.31,495.59
45,4606,0.029488,0.109803,0.924313,4140.44,-1527.31,2687.59
46,4706,0.040608,0.136489,0.968631,5580.42,-1638.33,805.57
47,4806,0.040942,0.156188,0.970833,15.42,1805.67,-518.43
48,4906,-0.014530,0.192744,0.995044,-2384.58,-2064.33,39.57
49,5006,-0.003472,0.172986,1.030968,-3473.57,2002.68,-110.42
50,5106,-0.018993,0.188107,1.034276,-1684.58,1308.67,-320.43
51,5216,-0.011825,0.147146,1.036428,-3660.57,-28.32,-502.42
52,5316,-0.014191,0.098065,1.049518,1741.43,116.68,375.58
53,5416,0.040744,0.076908,1.024793,2685.43,-1122.32,1209.58
54,5516,0.033349,0.098110,1.091374,5939.44,-2007.31,611.59
55,5626,0.032776,0.126074,1.068958,431.43,1313.68,-497.42
56,5726,0.026668,0.162973,1.059939,-337.56,1290.69,-648.41
57,5826,0.045334,0.186133,0.963521,-3350.57,1151.68,-170.42
58,5926,0.051423,0.166030,0.992198,-3262.56,1801.69,-365.41
59,6036,0.053779,0.130486,0.990408,-5117.57,-688.32,-621.42
60,6136,0.051606,0.117888,0.991981,-131.58,12.67,-14.43
61,6296,0.050253,0.095992,1.055592,5312.42,-5851.33,605.57
62,6406,0.026380,0.179444,0.985974,2704.43,5630.68,-313.42
63,6506,0.029709,0.194457,0.983725,-92.58,1295.67,-250.43
64,6606,0.023987,0.194950,1.123776,-1667.57,-1658.32,426.58
65,6706,0.023903,0.186141,1.175162,-378.56,1931.69,-82.41
66,6806,0.001987,0.233805,1.076585,-4419.56,-61.31,-547.41
67,6916,0.004031,0.210287,1.057029,-2531.57,-288.32,-638.42
68,7016,0.038874,0.198445,0.957092,2041.44,-1495.31,916.59
69,7116,0.012479,0.172559,0.960239,4034.44,-4376.31,1126.59
70,7216,0.206748,0.185877,1.098979,5170.44,35.69,1069.59
71,7326,0.191793,0.195183,1.077345,-1258.56,-774.31,86.59
72,7426,0.122006,0.199358,1.086952,257.43,-2810.32,334.58
73,7526,0.080010,0.205140,1.002687,-960.57,1616.68,378.58
74,7626,0.089723,0.181509,1.018385,-4684.57,2541.68,-6.42
75,7736,0.072509,0.133975,0.994814,-4631.56,835.69,-1436.41
76,7836,0.060111,0.126970,0.862316,3299.44,-1832.31,-202.41
77,7936,0.023664,0.119733,0.814218,4757.43,-2237.32,133.58
78,8036,0.036134,0.163588,0.813362,2778.44,-530.31,519.59
79,8136,0.034832,0.182463,0.836072,193.43,1556.68,-504.42
80,8236,0.038230,0.196914,0.881468,-71.57,594.68,-421.42
81,8396,0.015995,0.172374,0.942100,-4713.58,-684.33,-178.43
82,8496,0.040474,0.155837,0.902909,-4535.57,744.68,-69.42
83,8596,0.054799,0.121473,0.938426,-4446.57,-537.32,-784.42
84,8696,0.039070,0.127440,0.951898,-5035.56,-171.31,-485.41
85,8806,0.036083,0.109915,0.946594,-1794.57,44.68,-323.42
86,8906,0.033213,0.090735,0.957504,-12.59,15.66,-51.44
87,9006,0.032185,0.076116,0.963463,6.44,-6.31,-6.41
88,9106,0.028875,0.063746,0.969096,-0.57,-0.32,-25.42
89,9216,0.028241,0.053359,0.974067,-10.57,4.68,-2.42
90,9316,0.026255,0.044822,0.978183,0.43,2.68,-10.42
91,9416,0.025281,0.037146,0.981516,-4.57,6.68,-0.42
92,9516,0.023758,0.030858,0.984734,1.43,-7.32,-16.42
93,9616,0.022939,0.025880,0.987158,-0.57,5.68,-7.42
94,9716,0.021565,0.021137,0.988376,5.44,9.69,1.59
95,9816,0.020618,0.017178,0.989961,-0.56,-3.31,-1.41
96,9916,0.019647,0.013629,0.991088,0.43,-0.32,-8.42
97,10016,0.019042,0.010668,0.993108,-3.58,0.67,1.57
98,10116,0.018436,0.007785,0.994386,-4.56,5.69,-4.41
99,10216,0.018251,0.005957,0.995435,-0.57,-3.32,3.58
100,10326,0.017745,0.003194,0.996950,-7.56,6.69,5.59
1,0,0.002232,-0.000203,0.999255,-1.56,0.69,32.59
2,93,0.004129,-0.000851,0.999812,5.41,3.66,-10.44
3,193,0.005778,-0.001531,1.000029,-3.58,8.67,-1.43
4,293,0.007235,-0.002181,1.000562,-2.57,9.68,-19.42
5,403,0.012520,0.026636,0.962525,6412.42,648.67,1475.57
6,503,0.007618,-0.000213,0.964362,11227.42,231.67,2644.57
7,613,0.008909,0.010823,0.976598,12749.42,2188.67,3242.57
8,713,0.008798,0.095074,0.952960,2424.43,533.68,-402.42
9,813,0.017839,0.143800,0.945776,74.41,7.66,29.56
10,973,0.017560,0.183972,0.939249,-44.57,-9.32,-4.42
11,1073,0.018092,0.218045,0.934067,-25.57,-3.32,1.58
12,1183,0.018105,0.246805,0.929168,3.43,-7.32,-8.42
13,1283,0.017053,0.271673,0.924857,9.42,-1.33,-8.43
14,1383,0.016580,0.292517,0.921742,0.42,3.67,2.57
15,1493,0.039525,0.321532,0.914993,-4713.57,-1003.32,-267.42
16,1593,0.028082,0.294376,0.993045,-7114.59,-2080.34,-669.44
17,1693,0.047104,0.298119,1.016836,-1350.57,1054.68,-749.42
18,1793,0.047049,0.288483,1.007816,-0.58,-1.33,-13.43
19,1893,0.026312,0.250757,0.996707,-1481.58,831.67,98.57
20,1993,0.038659,0.230958,0.953151,-1674.58,-1078.33,-247.43
21,2093,0.021799,0.233849,0.919041,-5676.58,419.67,-202.43
22,2203,0.016036,0.201828,0.925624,89.42,-22.33,-14.43
23,2303,-0.028742,0.174958,0.943451,2857.42,-3436.33,1819.57
24,2403,-0.004016,0.225874,0.939708,9583.43,923.68,1108.58
25,2513,-0.009531,0.218688,0.967636,400.42,648.67,-524.43
26,2613,-0.003343,0.221662,0.969237,-107.59,936.66,-318.44
27,2713,0.001239,0.255373,1.076103,468.42,-399.33,578.57
28,2813,-0.010558,0.305542,1.039754,-1800.58,1644.67,-169.43
29,2913,-0.013792,0.283733,1.010579,-6425.59,-3014.34,-734.44
30,3013,-0.003651,0.251608,1.005684,-2742.59,-347.34,-729.44
31,3173,0.024397,0.223460,0.989291,2773.42,-3005.33,2285.57
32,3273,0.013301,0.231981,1.043821,5830.42,-1597.33,682.57
33,3373,0.025769,0.238051,1.019254,1112.42,1578.67,-211.43
34,3473,0.029171,0.237517,1.009286,36.41,921.66,-201.44
35,3583,0.024847,0.214265,0.970069,606.40,1168.65,297.55
36,3683,0.042926,0.240589,0.853788,-2294.59,578.66,-168.44
37,3783,0.034672,0.224953,0.885045,-7351.57,208.68,-560.42
38,3883,0.026796,0.172275,0.898101,387.42,-76.33,-206.43
39,3993,0.061391,0.132223,0.912275,2340.41,-436.34,1869.56
40,4093,0.328688,0.109147,1.084750,8469.43,3892.68,4.58
41,4193,0.314026,0.125128,1.073106,1937.42,2535.67,-458.43
42,4303,0.267945,0.140983,1.056195,393.41,953.66,-219.44
43,4403,0.207592,0.142850,1.010601,-735.57,453.68,-417.42
44,4503,0.175755,0.157329,0.948097,-3405.57,-1718.32,-363.42
45,4603,0.150709,0.164710,0.905608,-6833.56,-418.31,123.59
46,4703,0.129565,0.143884,0.908585,435.43,-36.32,-267.42
47,4813,0.118020,0.129349,0.849573,1597.42,-1186.33,659.57
48,4913,0.080339,0.117581,0.861999,4251.43,-4604.32,1258.58
49,5013,0.082861,0.161905,0.867800,2220.41,-1737.34,666.56
50,5113,0.082240,0.173067,0.887819,97.42,1685.67,-289.43
51,5283,0.088212,0.186711,0.841737,-3334.58,1249.67,-267.43
52,5383,0.082247,0.160076,0.909611,-3022.59,1846.66,-398.44
53,5483,0.078057,0.168693,0.882599,-6223.57,-376.32,-458.42
54,5583,0.069001,0.144047,0.890583,107.43,-10.32,-36.42
55,5693,0.035669,0.134047,0.877741,1295.42,-4062.33,1699.57
56,5793,0.044526,0.182420,0.904619,5718.42,16.67,833.57
57,5893,0.041489,0.181643,0.936638,674.42,901.67,-622.43
58,5993,0.039236,0.186475,0.945397,43.42,1036.67,-242.43
59,6093,0.030364,0.168774,0.918199,612.42,960.67,100.57
60,6193,0.044100,0.195550,0.819165,-2116.58,422.67,-178.43
61,6303,0.033931,0.176910,0.850654,-6177.57,-159.32,-558.42
62,6403,0.033508,0.145044,0.871359,-113.58,-2.33,1.57
63,6503,0.042597,0.119733,0.861328,3285.43,1643.68,1324.58
64,6603,0.093389,0.088551,0.996721,7416.41,-3369.34,1333.56
65,6773,0.084250,0.115056,0.990865,112.43,1520.68,-385.42
66,6873,0.082065,0.135058,0.985485,-125.57,1239.68,-249.42
67,6973,0.062612,0.112619,0.999899,-1192.58,1665.67,-61.43
68,7073,0.061825,0.120426,0.942901,-451.56,-819.31,-95.41
69,7183,0.057987,0.123784,0.964729,-7113.58,476.67,-490.43
70,7283,0.043977,0.090054,0.967150,523.41,28.66,-78.44
71,7383,0.071619,0.100495,0.938740,2280.42,-3197.33,1497.57
72,7493,0.067722,0.083881,1.001182,8822.43,-1604.32,887.58
73,7593,0.061022,0.113283,0.989749,-430.60,-687.35,28.55
74,7693,0.060967,0.130182,0.993545,-736.56,-512.31,72.59
75,7793,0.112263,0.163388,1.071918,-997.58,540.67,891.57
76,7893,0.100128,0.178448,1.074265,-4956.56,1020.69,42.59
77,8063,0.071209,0.157575,1.042696,-2333.58,130.67,-1169.43
78,8163,0.072318,0.118630,0.972101,1823.43,-1906.32,-82.42
79,8263,0.042151,0.112388,0.948588,4153.44,-4464.31,549.59
80,8363,0.046776,0.145590,0.953120,1650.42,262.67,565.57
81,8473,0.039501,0.151362,0.966438,44.42,1388.67,-448.43
82,8573,0.014805,0.177143,1.032892,-2108.58,-1460.33,196.57
83,8673,0.014542,0.157308,1.079416,-2941.58,1821.67,-2.43
84,8773,0.001628,0.179890,1.062968,-2258.58,1148.67,-338.43
85,8883,0.005942,0.147302,1.039778,-5302.57,55.68,-906.42
86,8983,0.012226,0.140440,1.021348,-695.56,46.69,-89.41
87,9083,0.008669,0.111371,1.020843,-4236.58,103.67,-668.43
88,9183,0.007568,0.086589,1.017905,52.42,-92.33,-543.43
89,9283,0.005717,0.072683,1.014823,9.43,-0.32,-6.42
90,9383,0.009600,0.061047,1.012733,-3.58,10.67,-6.43
91,9553,0.009128,0.050955,1.010444,5.41,3.66,-36.44
92,9653,0.010650,0.042834,1.008334,-4.57,-0.32,16.58
93,9753,0.010478,0.036462,1.006760,2.42,16.67,-28.43
94,9853,0.011559,0.030607,1.005734,-0.58,-12.33,16.57
95,9963,0.010574,0.025795,1.004788,6.43,0.68,-16.42
96,10063,0.011293,0.021485,1.003654,-5.59,-1.34,-5.44
97,10163,0.010897,0.017565,1.003222,-0.58,2.67,-0.43
98,10263,0.011092,0.014837,1.003037,-3.57,-7.32,0.58
99,10363,0.011733,0.012427,1.002642,7.42,1.67,-20.43
100,10473,0.012406,0.010635,1.002398,-7.58,-0.33,12.57
1,0,0.003386,0.060570,0.985394,-18.57,9.68,0.58
2,101,0.006080,0.113043,0.972960,0.41,-0.34,-9.44
3,201,0.006868,0.157004,0.962593,0.41,7.66,0.56
4,301,0.008509,0.194884,0.954001,-4.59,2.66,-8.44
5,411,0.024461,0.245978,0.922583,-5278.57,-1252.32,-389.42
6,511,0.015882,0.231437,0.997757,-7124.59,-2215.34,-607.44
7,611,0.037466,0.243540,1.017545,-1254.59,1484.66,-772.44
8,711,0.034755,0.238850,1.010414,36.42,-19.33,0.57
9,811,0.014543,0.208715,0.998439,-1849.59,810.66,385.56
10,921,0.028985,0.208314,0.924192,-1668.59,474.66,-45.44
11,1021,0.017000,0.199808,0.952396,-6914.58,-317.33,-204.43
12,1121,0.012544,0.170787,0.958334,210.42,116.67,46.57
13,1221,0.052609,0.136085,0.927291,1728.40,298.65,758.55
14,1321,0.049568,0.108256,0.999617,5018.44,-6502.31,819.59
15,1421,0.174369,0.148522,1.128055,4381.41,4052.66,84.56
16,1521,0.135888,0.157388,1.111324,17.40,1322.65,-434.45
17,1621,0.071411,0.189644,1.123599,-2629.58,-2066.33,56.57
18,1721,0.064633,0.166194,1.143370,-3395.61,1919.64,77.54
19,1881,0.051621,0.176511,1.080305,-6248.60,627.65,-278.45
20,1981,0.045249,0.155654,1.057993,734.43,-45.32,-138.42
21,2081,-0.000194,0.135106,1.062923,2726.42,-3099.33,780.57
22,2191,-0.010128,0.191871,1.049590,6761.41,449.66,358.56
23,2291,0.000855,0.175943,1.054205,221.41,1046.66,-269.44
24,2391,0.007335,0.181355,1.042071,80.43,954.68,-132.42
25,2491,0.036774,0.217798,1.045800,-2950.59,1746.66,58.56
26,2591,0.014209,0.191297,1.082661,-4998.57,-277.32,-87.42
27,2701,0.009713,0.194681,1.000138,-5317.59,1422.66,-296.44
28,2801,0.000637,0.149437,1.015101,79.41,136.66,-404.44
29,2901,-0.040513,0.144159,0.971863,3367.42,-56.33,1138.57
30,3001,-0.002120,0.119238,1.109372,10000.42,2446.67,663.57
31,3111,0.000100,0.137422,1.067025,1682.41,1275.66,-137.44
32,3211,-0.000540,0.152678,1.052162,288.41,-16.34,84.56
33,3311,-0.028715,0.171175,1.119306,-3092.59,-3687.34,498.56
34,3411,-0.005440,0.155824,1.165869,-2402.58,1775.67,159.57
35,3521,-0.013635,0.190035,1.069638,-4936.59,-2914.34,-479.44
36,3621,-0.005934,0.180389,1.051636,-2550.58,-280.33,-838.43
37,3721,-0.006200,0.150381,1.046277,178.42,-38.33,13.57
38,3821,-0.008202,0.169259,0.957200,2709.41,-4148.34,1653.56
39,3981,-0.057181,0.264041,0.840048,2816.43,3918.68,746.58
40,4081,-0.048973,0.257575,0.868496,66.41,1313.66,-383.44
41,4181,-0.036997,0.241239,0.926368,-3793.59,2891.66,-4.44
42,4291,-0.018394,0.227904,0.876481,127.42,-150.33,141.57
43,4391,-0.022522,0.227994,0.847334,-7242.59,1708.66,-386.44
44,4491,-0.012810,0.198975,0.867566,542.43,79.68,-71.42
45,4591,-0.012703,0.178173,0.762706,4135.43,-1622.32,380.58
46,4691,-0.050259,0.173180,0.721548,4399.43,-1024.32,716.58
47,4791,-0.023606,0.217240,0.744590,3642.42,-1630.33,1797.57
48,4891,-0.011681,0.219076,0.783658,-19.59,1756.66,-342.44
49,5001,0.004864,0.234535,0.940791,348.42,-1139.33,517.57
50,5101,0.005395,0.277429,0.937868,-358.59,2026.66,-10.44
51,5201,-0.005395,0.271226,0.915736,-6959.56,-2058.31,-439.41
52,5311,-0.014036,0.241069,0.935010,-2955.59,-128.34,-471.44
53,5411,-0.011128,0.180041,0.892084,4061.41,-620.34,261.56
54,5511,0.002990,0.145306,0.884675,4431.42,1300.67,1391.57
