sample_num,timestamp_ms,acc_x(g),acc_y(g),acc_z(g),gyro_x(LSB),gyro_y(LSB),gyro_z(LSB)
1,0,0.003658,-0.003591,1.000800,3.05,-69.10,-284.45
2,98,0.002958,-0.002523,1.000950,251.06,468.91,-69.44
3,198,0.003847,-0.002915,1.000106,13.06,27.91,47.56
4,298,0.003998,-0.003541,1.000506,64.06,172.91,-141.44
5,398,0.003925,-0.002023,1.000919,222.06,543.91,-365.44
6,498,0.012487,-0.000330,1.005683,44.07,1910.92,-417.43
7,598,0.010538,-0.001069,1.007719,187.09,5778.94,-3014.41
8,698,-0.015565,-0.001862,1.005109,396.06,6607.91,-2364.44
9,798,-0.048885,-0.005081,0.997984,-60.91,4910.94,-8.41
10,898,-0.087918,-0.002819,0.988613,-155.93,3452.92,296.57
11,998,-0.117984,-0.002416,0.981893,-101.92,3573.93,251.58
12,1108,-0.146597,0.000307,0.975797,-149.93,5622.92,267.57
13,1208,-0.185348,0.004141,0.958090,-225.93,8188.92,527.57
14,1308,-0.236468,0.021793,0.919199,-993.94,11994.91,1551.56
15,1418,-0.287794,0.007902,0.841171,-1526.92,22430.93,904.58
16,1518,-0.431524,-0.016246,0.770893,1276.07,20217.92,-3699.43
17,1618,-0.522934,-0.024504,0.684239,1832.06,6607.91,2197.56
18,1718,-0.575290,-0.023961,0.596375,3606.07,7904.92,2179.57
19,1828,-0.665441,-0.001307,0.486479,69.08,1252.93,-129.42
20,1928,-0.691642,0.005150,0.431721,-73.92,5051.93,-1.42
21,2028,-0.875338,0.017688,0.157467,-5791.92,11566.93,3204.58
22,2138,-0.891075,0.024409,0.088541,1335.08,-3485.07,-2780.42
23,2238,-0.903718,0.010968,0.034459,-957.92,2804.93,6.58
24,2338,-0.898993,0.018202,-0.015045,-499.92,882.93,-106.42
25,2438,-0.901587,0.023326,-0.059650,-1491.92,3426.93,-273.42
26,2538,-0.919355,0.021950,-0.100292,-438.91,992.94,-186.41
27,2648,-0.922483,0.025120,-0.135754,43.08,-128.07,6.58
28,2748,-0.923988,0.027375,-0.165402,7.10,-125.05,-18.40
29,2848,-0.925945,0.028761,-0.189321,-42.91,-316.06,-82.41
30,2948,-0.922464,0.032337,-0.211319,-58.92,-734.07,-141.42
31,3058,-0.923478,0.032063,-0.223663,8.08,-304.07,-24.42
32,3158,-0.926683,0.032434,-0.237177,-0.92,-106.07,-11.42
33,3258,-0.929939,0.033684,-0.248590,56.08,-182.07,-9.42
34,3358,-0.932395,0.034160,-0.258365,-0.91,-32.06,-18.41
35,3468,-0.933823,0.034711,-0.265391,4.09,-40.06,-10.41
36,3568,-0.936374,0.035179,-0.270961,-8.92,-1723.07,-75.42
37,3668,-0.937353,0.034185,-0.271686,-12.93,-259.08,-18.43
38,3768,-0.940144,0.034055,-0.275268,-4.92,262.93,12.58
39,3878,-0.941600,0.034054,-0.275914,4.09,-319.06,-6.41
40,3978,-0.943552,0.034328,-0.278020,12.08,-268.07,-8.42
41,4078,-0.944461,0.033829,-0.276697,-18.92,-166.07,-8.42
42,4188,-0.946661,0.032672,-0.277183,47.08,-104.07,13.58
43,4288,-0.947140,0.033025,-0.277579,-9.92,-24.07,5.58
44,4388,-0.949543,0.033709,-0.279874,2.08,-323.07,-15.42
45,4488,-0.951146,0.033943,-0.279481,25.07,-946.08,-24.43
46,4588,-0.953022,0.034362,-0.276529,35.08,-1221.07,-37.42
47,4698,-0.953755,0.033876,-0.270541,26.08,-935.07,-29.42
48,4798,-0.956008,0.033865,-0.264590,16.08,-767.07,-25.42
49,4898,-0.957575,0.033856,-0.256694,13.09,-967.06,-22.41
50,4998,-0.958870,0.033848,-0.248517,24.07,-893.08,-22.43
1,0,-0.003117,0.001207,1.000508,-0.92,61.93,216.58
2,99,-0.002176,0.000512,1.001598,24.09,106.94,403.59
3,199,-0.009415,0.000599,1.001409,29.10,82.95,492.60
4,299,-0.001835,0.002523,0.998556,156.10,324.95,489.60
5,399,0.000616,0.004780,0.996278,572.11,1140.96,57.61
6,499,-0.007023,0.006058,0.990203,162.10,422.95,1462.60
7,599,-0.003061,0.007859,0.992821,528.11,1634.96,-338.39
8,699,0.026985,0.001754,0.993198,7234.12,11383.97,-3079.38
9,799,-0.025094,0.040125,0.917895,12846.11,22093.96,-4558.39
10,899,-0.098768,0.064373,0.886682,-795.90,2935.95,2921.60
11,999,-0.158553,0.086045,0.882141,4574.10,9721.95,-834.40
12,1109,-0.225062,0.124884,0.864476,851.11,4871.96,1782.61
13,1209,-0.308017,0.154655,0.828696,899.10,10762.95,-2938.40
14,1309,-0.374024,0.164598,0.777977,-587.90,10875.96,-4442.40
15,1419,-0.456095,0.167904,0.714578,-1181.89,10862.96,-4447.39
16,1519,-0.543012,0.164709,0.637031,-6794.88,11788.97,-2834.38
17,1619,-0.610263,0.152563,0.564323,-3094.89,6714.96,-2262.39
18,1719,-0.678541,0.131417,0.489814,-3331.90,6403.95,-257.40
19,1829,-0.721617,0.101780,0.437449,-1610.89,3175.96,-446.39
20,1929,-0.765813,0.092994,0.364723,-969.90,5205.95,7.60
21,2029,-0.805796,0.085874,0.283587,-315.89,4917.96,124.61
22,2139,-0.828008,0.075281,0.224474,-538.89,5411.96,514.61
23,2239,-0.846156,0.078618,0.121858,-610.89,4034.96,207.61
24,2339,-0.879672,0.057797,0.076475,-75.90,2109.95,21.60
25,2439,-0.895948,0.055133,0.019552,-108.90,10.95,-132.40
26,2539,-0.904198,0.053692,-0.026818,-28.89,444.96,73.61
27,2649,-0.911265,0.052833,-0.065940,1.10,81.95,27.60
28,2749,-0.916577,0.052195,-0.098516,10.11,-70.04,-16.39
29,2849,-0.922757,0.050829,-0.126846,41.12,-307.03,-32.38
30,2949,-0.928340,0.050345,-0.150725,103.12,-941.03,-141.38
31,3059,-0.932390,0.049183,-0.167141,76.13,-1549.02,-235.37
32,3159,-0.934917,0.047408,-0.176407,-6.88,59.97,29.62
33,3259,-0.940324,0.047126,-0.189758,-1.89,61.96,30.61
34,3359,-0.943583,0.046520,-0.197975,68.12,-736.03,-103.38
35,3469,-0.946574,0.045822,-0.204556,-19.89,197.96,33.61
36,3569,-0.948969,0.044972,-0.209895,17.12,-113.03,-11.38
37,3669,-0.951170,0.044268,-0.214560,19.11,-534.04,-106.39
38,3769,-0.953150,0.043230,-0.216182,81.11,-978.04,-57.39
39,3879,-0.953772,0.042366,-0.215785,-23.89,191.96,9.61
40,3979,-0.955893,0.041394,-0.217241,56.11,-367.04,-13.39
41,4079,-0.957678,0.040494,-0.217765,5.12,-39.03,5.62
42,4189,-0.959305,0.039565,-0.218046,7.12,-12.03,3.62
43,4289,-0.960761,0.039251,-0.218596,-3.90,41.95,-10.40
44,4389,-0.961888,0.038746,-0.218953,39.14,-477.01,-22.36
45,4489,-0.962298,0.038463,-0.217023,-9.89,-81.04,-0.39
46,4589,-0.963708,0.037856,-0.216811,19.10,-123.05,-10.40
47,4699,-0.965107,0.037305,-0.216594,-1.87,-185.02,-5.37
48,4799,-0.965015,0.037311,-0.214834,-32.88,342.97,1.62
49,4899,-0.966640,0.037207,-0.215920,6.13,-19.02,-3.37
50,4999,-0.967069,0.037265,-0.215581,9.11,-113.04,-13.39
1,0,-0.002108,0.000769,0.999428,121.12,227.97,114.62
2,99,-0.004944,0.002447,0.998319,119.12,208.97,79.62
3,199,-0.002556,0.001329,1.000141,407.13,810.98,192.63
4,299,-0.008016,0.004004,1.001013,978.13,1913.98,-194.37
5,399,-0.009362,0.005838,1.005251,1369.12,2533.97,-566.38
6,499,-0.028101,0.013184,1.001035,981.14,1840.99,522.64
7,599,-0.039452,0.017394,0.999941,1127.12,2443.97,-127.38
8,699,-0.063254,0.032729,0.992987,426.14,897.99,459.64
9,799,-0.072372,0.039428,0.993632,352.13,822.98,151.63
10,899,-0.086787,0.046807,0.994546,771.13,1591.98,630.63
11,999,-0.107114,0.057602,0.985197,273.13,1099.98,891.63
12,1109,-0.121299,0.057933,0.991881,320.12,1513.97,1201.62
13,1209,-0.131433,0.066162,0.989487,718.12,4239.97,-131.38
14,1309,-0.122688,0.058288,0.969325,6134.13,10124.98,-3207.37
15,1419,-0.317550,0.038998,1.025100,-17.86,1986.99,3263.64
16,1519,-0.310880,0.043823,1.021660,1813.13,3966.98,-556.37
17,1619,-0.325847,0.072735,0.987297,1792.13,7804.98,-2893.37
18,1719,-0.378192,0.099324,0.940345,1446.14,8898.99,-2757.36
19,1829,-0.438104,0.117879,0.899997,-216.87,5096.98,-438.37
20,1929,-0.475826,0.121510,0.847427,479.13,7992.98,-2019.37
21,2029,-0.524737,0.128936,0.775552,1112.13,13146.98,-5078.37
22,2139,-0.604286,0.123841,0.691514,-1124.86,9164.99,-4517.36
23,2239,-0.662583,0.113102,0.607576,-3490.86,7098.99,-2452.36
24,2339,-0.726161,0.107617,0.520281,-3265.86,3819.99,4.64
25,2439,-0.752609,0.103303,0.450621,-6803.85,4729.00,214.65
26,2539,-0.759141,0.075448,0.400382,-1003.86,13476.99,134.64
27,2649,-0.804116,0.069221,0.334461,-3641.87,-845.02,-749.37
28,2749,-0.829344,0.064330,0.258524,18.13,-149.02,89.63
29,2849,-0.851428,0.060137,0.192165,0.14,46.99,-7.36
30,2949,-0.870841,0.055731,0.135925,3.14,-53.01,7.64
31,3059,-0.886757,0.052955,0.088432,7.13,-204.02,7.63
32,3159,-0.900156,0.050011,0.048100,2.13,-20.02,-3.37
33,3259,-0.912389,0.047819,0.013598,45.12,-551.03,34.62
34,3359,-0.921980,0.045772,-0.012525,14.13,-937.02,-4.37
35,3469,-0.929474,0.044033,-0.032568,5.14,-857.01,0.64
36,3569,-0.937180,0.042866,-0.049550,15.14,-40.01,7.64
37,3669,-0.946202,0.041911,-0.065029,61.14,-767.01,0.64
38,3769,-0.951985,0.041374,-0.074010,55.14,-1566.01,-10.36
39,3879,-0.956571,0.040697,-0.075804,5.13,-1726.02,-10.37
40,3979,-0.961640,0.040635,-0.075717,-45.86,-1662.01,-22.36
41,4079,-0.963386,0.040051,-0.069967,32.13,-1368.02,-2.37
42,4189,-0.967928,0.039188,-0.065922,97.13,-530.02,10.63
43,4289,-0.978362,0.038821,-0.065266,36.14,-3694.01,-28.36
44,4389,-0.964563,0.040615,-0.038452,241.14,-1256.01,85.64
45,4489,-0.969001,0.039650,-0.030253,-244.86,2262.99,-76.36
46,4589,-0.976253,0.039671,-0.030261,-37.87,973.98,-2.37
47,4699,-0.978774,0.039250,-0.027374,24.13,-553.02,-11.37
48,4799,-0.979927,0.038800,-0.021808,28.13,-897.02,6.63
49,4899,-0.979278,0.038290,-0.014696,39.14,-375.01,7.64
50,4999,-0.980209,0.038149,-0.009200,20.13,-109.02,-2.37
1,0,0.000932,-0.000110,0.999813,38.14,104.99,70.64
2,99,0.000809,0.000218,1.000166,12.16,51.01,25.66
3,199,0.000321,-0.000254,1.000485,49.18,116.03,-62.32
4,299,0.003385,-0.001808,1.000628,160.17,328.02,69.67
5,399,0.001228,-0.001244,1.001189,346.16,722.01,-24.34
6,499,-0.001887,0.000921,0.998773,269.16,530.01,-10.34
7,599,-0.000342,0.000728,0.998349,158.17,336.02,133.67
8,699,-0.000310,0.002468,0.999325,735.17,1421.02,48.67
9,799,-0.012551,0.007262,0.998103,888.16,1822.01,-116.34
10,899,-0.022681,0.012600,0.996901,742.15,1549.00,-51.35
11,999,-0.031402,0.016221,0.996116,1006.16,2010.01,31.66
12,1109,-0.042696,0.020014,0.995560,1818.17,3740.02,-190.33
13,1209,-0.075788,0.035268,0.988348,2004.17,3946.02,142.67
14,1309,-0.105858,0.050413,0.982713,830.16,1723.01,470.66
15,1419,-0.119479,0.058323,0.986766,1367.15,2910.00,460.65
16,1519,-0.115017,0.059334,0.977175,2915.16,5604.01,64.66
17,1619,-0.341057,0.131843,1.026316,-315.83,4192.02,-12216.33
18,1719,-0.333919,0.144092,0.980342,2123.16,5441.01,2615.66
19,1829,-0.377453,0.174426,0.951500,1847.18,5246.03,-941.32
20,1929,-0.432348,0.205757,0.918029,2627.15,6954.00,-346.35
21,2029,-0.481132,0.220560,0.896465,55.17,3867.02,-1789.33
22,2139,-0.498959,0.238728,0.839646,-1083.82,9795.03,-3693.32
23,2239,-0.543336,0.224526,0.790563,-1785.83,12145.02,-6386.33
24,2339,-0.645637,0.211337,0.704183,-931.81,13514.04,-4653.31
25,2439,-0.708918,0.176085,0.627372,-3316.83,2902.02,0.67
26,2539,-0.738354,0.168075,0.552617,-549.83,2756.02,-250.33
27,2649,-0.763502,0.147973,0.502698,-710.82,8537.03,-1490.32
28,2749,-0.817893,0.129458,0.416596,-4029.82,9456.03,-746.32
29,2849,-0.841511,0.113793,0.333521,-796.82,2042.03,-87.32
30,2949,-0.862960,0.103499,0.262487,26.17,-67.98,-32.33
31,3059,-0.879433,0.096142,0.199819,-97.82,244.03,-15.32
32,3159,-0.894607,0.089485,0.147137,-227.82,568.03,-23.32
33,3259,-0.907121,0.083771,0.101167,-48.81,129.04,-0.31
34,3359,-0.917226,0.078951,0.062789,92.18,-229.97,-19.32
35,3469,-0.926659,0.074617,0.030112,24.18,-103.97,-24.32
36,3569,-0.934255,0.071591,0.002337,51.17,-281.98,-30.33
37,3669,-0.941756,0.068964,-0.020649,68.16,-625.99,-42.34
38,3769,-0.948003,0.065486,-0.037972,54.17,-1285.98,19.67
39,3879,-0.953039,0.062713,-0.047295,56.17,-1041.98,48.67
40,3979,-0.957191,0.060594,-0.056007,6.16,-28.99,-7.34
41,4079,-0.961691,0.059159,-0.064163,28.17,-359.98,17.67
42,4189,-0.965021,0.057592,-0.070289,-2.82,-173.97,-3.32
43,4289,-0.967412,0.056681,-0.074545,3.18,-150.97,1.68
44,4389,-0.970653,0.055466,-0.079187,49.17,-486.98,46.67
45,4489,-0.972529,0.054782,-0.080002,48.18,-594.97,46.68
46,4589,-0.975332,0.054128,-0.081391,39.17,-508.98,37.67
47,4699,-0.976086,0.053315,-0.079477,18.16,-386.99,42.66
48,4799,-0.979729,0.052368,-0.079681,12.18,-88.97,-20.32
49,4899,-0.981470,0.052093,-0.078225,39.18,-510.97,54.68
50,4999,-0.984049,0.051183,-0.075376,57.16,-1403.99,123.66
1,0,-0.005475,0.002656,0.999886,303.18,643.03,31.68
2,99,-0.014488,0.005828,0.999972,265.16,552.01,-1.34
3,199,-0.020134,0.008232,1.000284,344.19,716.04,62.69
4,299,-0.023890,0.009726,1.000933,851.16,1683.01,19.66
5,399,-0.032191,0.014658,0.998427,1498.17,3022.02,-162.33
6,499,-0.062171,0.029690,0.989833,1566.18,2876.03,-770.32
7,599,-0.085439,0.038054,0.987857,22.18,70.03,276.68
8,699,-0.086778,0.041905,0.990865,513.18,1083.03,370.68
9,799,-0.098994,0.047411,0.990675,1392.17,3197.02,829.67
10,899,-0.121701,0.066191,0.981175,1481.18,3629.03,970.68
11,999,-0.101432,0.062672,0.977897,3478.17,7290.02,-602.33
12,1109,-0.347418,0.071362,1.026362,461.17,-432.98,-1032.33
13,1209,-0.371680,0.092207,0.978349,-3937.83,781.02,-1477.33
14,1309,-0.379997,0.095625,0.942610,-10659.82,-17.97,-1308.32
15,1419,-0.398584,0.079927,0.909173,-2474.81,2618.04,-3088.31
16,1519,-0.436886,0.049134,0.931821,174.18,8518.03,-1727.32
17,1619,-0.444358,0.013181,0.921408,2087.17,3450.02,3372.67
18,1719,-0.458363,0.035796,0.889888,2264.19,12301.04,1498.69
19,1829,-0.493796,0.032533,0.850865,-1171.81,17992.04,469.69
20,1929,-0.538947,0.033239,0.762691,222.20,20792.05,-50.30
21,2029,-0.615154,0.025049,0.663958,65.19,8542.04,-89.31
22,2139,-0.678393,0.025559,0.565678,350.18,-1265.97,148.68
23,2239,-0.715447,0.028098,0.499884,171.20,-384.95,59.70
24,2339,-0.753040,0.031171,0.433742,-100.81,2880.04,-54.31
25,2439,-0.790524,0.034993,0.362195,-129.81,3073.04,-69.31
26,2539,-0.823190,0.035036,0.301288,-62.81,1103.04,-27.31
27,2649,-0.845776,0.036446,0.249774,-123.82,1146.03,-38.32
28,2749,-0.866474,0.036895,0.203277,-147.81,2023.04,-32.31
29,2849,-0.884215,0.036781,0.153794,-39.82,1458.03,-6.32
30,2949,-0.901400,0.037801,0.112905,31.20,-299.95,-4.30
31,3059,-0.913517,0.038797,0.081756,166.18,-1344.97,20.68
32,3159,-0.924128,0.039735,0.058686,164.19,-1148.96,32.69
33,3259,-0.934502,0.040403,0.040119,110.18,-1822.97,17.68
34,3359,-0.944822,0.040734,0.027854,91.18,-3528.97,74.68
35,3469,-0.951250,0.044073,0.023562,-286.81,-3128.96,3.69
36,3569,-0.951220,0.046618,0.031816,141.18,-830.97,53.68
37,3669,-0.958959,0.046236,0.034565,-67.82,530.03,-26.32
38,3769,-0.977586,0.052356,0.023462,-536.84,-1610.99,-53.34
39,3879,-0.975090,0.051790,0.036656,96.17,-763.98,4.67
40,3979,-0.977509,0.051566,0.043934,-12.83,-52.98,-29.33
41,4079,-0.976489,0.050423,0.052263,50.16,-513.99,19.66
42,4189,-0.975640,0.050569,0.060203,-11.83,85.02,-14.33
43,4289,-0.976622,0.050345,0.065781,9.17,9.02,1.67
44,4389,-0.976357,0.050209,0.071144,14.18,-84.97,4.68
45,4489,-0.977707,0.049691,0.074769,-27.83,225.02,-5.33
46,4589,-0.978562,0.049947,0.078418,15.17,-55.98,0.67
47,4699,-0.978721,0.050420,0.081830,10.16,-68.99,8.66
48,4799,-0.977922,0.050548,0.084493,-59.84,130.01,-3.34
49,4899,-0.978031,0.050876,0.086171,-115.84,492.01,-19.34
50,4999,-0.980759,0.050020,0.085363,-12.82,209.03,-23.32
1,0,-0.002985,-0.002581,1.000271,80.17,189.02,58.67
2,99,-0.004571,-0.004995,0.999988,57.18,121.03,91.68
3,199,-0.006394,-0.006827,1.000096,114.18,419.03,119.68
4,299,-0.011002,-0.007139,1.000407,131.18,411.03,97.68
5,399,-0.015743,-0.007496,0.999555,131.17,379.02,37.67
6,499,-0.018931,-0.008788,0.999947,162.17,428.02,176.67
7,599,-0.022427,-0.008843,0.999896,258.18,667.03,241.68
8,699,-0.024392,-0.009768,1.001208,598.18,1394.03,192.68
9,799,-0.026813,-0.009328,1.002524,1471.17,3017.02,115.67
10,899,-0.040187,-0.003094,1.000494,1934.18,4352.03,-278.32
11,999,-0.068491,0.004036,0.996076,1838.19,3856.04,9.69
12,1109,-0.094290,0.015241,0.992065,1645.18,3789.03,270.68
13,1209,-0.121822,0.025736,0.993032,1901.17,3984.02,454.67
14,1309,-0.165915,0.043831,0.981072,1314.17,2935.02,565.67
15,1419,-0.195722,0.055897,0.971676,748.18,1660.03,496.68
16,1519,-0.204231,0.064944,0.961584,1398.18,3710.03,533.68
17,1619,-0.207947,0.081479,0.922170,-229.81,3104.04,364.69
18,1719,-0.264884,0.092769,0.911173,-4495.81,994.04,-3985.31
19,1829,-0.336974,0.082992,0.977612,-416.82,3948.03,66.68
20,1929,-0.309170,0.062066,0.939475,-1366.82,16588.03,186.68
21,2029,-0.347811,0.052885,0.890816,-565.82,16455.03,-712.32
22,2139,-0.414018,0.031604,0.828418,-1451.82,9175.03,1195.68
23,2239,-0.482543,0.050650,0.754597,-382.81,14156.04,2684.69
24,2339,-0.540662,0.061620,0.668869,505.18,16301.03,13.68
25,2439,-0.642632,0.066806,0.539165,702.19,17167.04,-638.31
26,2539,-0.691348,0.069439,0.418736,-188.81,8694.04,2079.69
27,2649,-0.731385,0.071639,0.307325,7.18,4960.03,886.68
28,2749,-0.758658,0.076421,0.200340,-122.81,3834.04,783.69
29,2849,-0.782738,0.081640,0.106418,-76.81,322.04,-2.31
30,2949,-0.801193,0.086789,0.029020,-146.82,538.03,159.68
31,3059,-0.816476,0.093071,-0.047060,-668.83,1994.02,434.67
32,3159,-0.830364,0.098208,-0.108615,-512.84,1072.01,360.66
33,3259,-0.837262,0.103454,-0.160845,188.16,-450.99,-230.34
34,3359,-0.845542,0.106760,-0.205167,25.17,-52.98,-35.33
35,3469,-0.851335,0.110082,-0.241687,205.17,-356.98,-121.33
36,3569,-0.856937,0.111423,-0.271832,474.16,-1361.99,-420.34
37,3669,-0.864720,0.112727,-0.301832,253.16,-1883.99,-396.34
38,3769,-0.872031,0.111492,-0.315008,85.16,-1271.99,-266.34
39,3879,-0.879949,0.110753,-0.326044,129.15,-1506.00,-262.35
40,3979,-0.887594,0.109247,-0.332842,110.16,-3303.99,-739.34
41,4079,-0.897132,0.105732,-0.332377,41.14,-5381.01,-1395.36
42,4189,-0.906741,0.099192,-0.312206,214.15,-7761.00,-1619.35
43,4289,-0.898685,0.091491,-0.284386,296.16,-2399.99,108.66
44,4389,-0.916942,0.087106,-0.264419,-13.85,-924.00,-40.35
45,4489,-0.917848,0.085008,-0.236827,256.15,-3346.00,150.65
46,4589,-0.925357,0.082034,-0.204237,119.14,-2173.01,14.64
47,4699,-0.935567,0.079507,-0.177122,30.14,-1251.01,15.64
48,4799,-0.945875,0.077542,-0.153469,-18.86,-1776.01,7.64
49,4899,-0.952347,0.075194,-0.127102,39.14,-1661.01,20.64
50,4999,-0.957501,0.073473,-0.101761,20.14,-1480.01,6.64
1,0,-0.022450,0.000861,0.997634,22.15,38.00,15.65
2,99,-0.039264,0.000749,0.996098,64.11,161.96,77.61
3,199,-0.052035,0.002559,0.997283,-34.87,28.98,329.63
4,299,-0.066004,0.002998,0.997906,131.11,264.96,171.61
5,399,-0.079873,0.003775,0.995871,276.12,521.97,-77.38
6,499,-0.091204,0.005442,0.994051,142.12,358.97,227.62
7,599,-0.099444,0.006126,0.994096,268.11,396.96,13.61
8,699,-0.105239,0.008631,0.989685,253.11,456.96,-215.39
9,799,-0.114926,0.006933,0.995293,161.12,495.97,61.62
10,899,-0.119589,0.008437,0.990647,692.12,1285.97,-481.38
11,999,-0.075286,0.005395,0.991057,4832.12,8198.97,-780.38
12,1109,-0.152069,0.034871,0.963866,8697.12,14279.97,-2938.38
13,1209,-0.178132,0.066737,0.920557,391.13,3246.98,929.63
14,1309,-0.202611,0.073901,0.892662,-5858.89,1690.96,-880.39
15,1419,-0.225304,0.083268,0.872705,-129.88,7864.97,-786.38
16,1519,-0.275318,0.071858,0.868174,-2280.88,13799.97,156.62
17,1619,-0.364321,0.069721,0.806278,-1678.89,18589.96,44.61
18,1719,-0.467585,0.067319,0.715764,1214.14,17976.99,2210.64
19,1829,-0.553803,0.058246,0.626779,-92.87,8617.98,-666.37
20,1929,-0.604878,0.054032,0.545263,-250.86,10094.99,-682.36
21,2029,-0.745484,0.048930,0.411669,-714.87,15288.98,1374.63
22,2139,-0.768539,0.053620,0.315856,786.12,-2772.03,-1155.38
23,2239,-0.818568,0.048598,0.231852,955.12,-3137.03,-1936.38
24,2339,-0.842727,0.047368,0.168011,-332.87,1124.98,190.63
25,2439,-0.862347,0.044749,0.116950,25.13,-87.02,-4.37
26,2539,-0.878621,0.042669,0.072725,-8.87,5.98,15.63
27,2649,-0.892967,0.040607,0.035133,-5.88,16.97,-3.38
28,2749,-0.905307,0.039313,0.003674,10.11,-35.04,-27.39
29,2849,-0.919203,0.036253,-0.023377,278.10,-1134.05,-236.40
30,2949,-0.925448,0.034458,-0.041244,-38.89,300.96,27.61
31,3059,-0.933649,0.033207,-0.060001,53.10,-141.05,-31.40
32,3159,-0.940877,0.032546,-0.076586,-24.90,45.95,-8.40
33,3259,-0.946049,0.031930,-0.090188,9.10,-17.05,-11.40
34,3359,-0.950300,0.031021,-0.100835,44.09,-159.06,-32.41
35,3469,-0.957759,0.030102,-0.112943,99.08,-1098.07,-108.42
36,3569,-0.960730,0.029009,-0.116697,199.08,-1601.07,-31.42
37,3669,-0.964226,0.027256,-0.115732,166.06,-1456.09,63.56
38,3769,-0.969193,0.027378,-0.114198,98.07,-2640.08,167.57
39,3879,-0.971401,0.027701,-0.103684,113.06,-3338.09,226.56
40,3979,-0.973498,0.027225,-0.087331,309.07,-3186.08,219.57
41,4079,-0.976598,0.029274,-0.068304,86.08,-3595.07,233.58
42,4189,-0.977933,0.030539,-0.042664,62.07,-4554.08,316.57
43,4289,-0.974802,0.033647,-0.010489,-28.93,-5322.08,367.57
44,4389,-0.963992,0.037900,0.032901,-261.94,-4207.09,424.56
45,4489,-0.962733,0.043951,0.065442,178.07,-891.08,5.57
46,4589,-0.962797,0.045102,0.097570,4.06,-1609.09,-211.44
47,4699,-0.961516,0.048369,0.126325,-39.94,-3389.09,-315.44
48,4799,-0.950136,0.047118,0.164463,-127.95,-3184.10,-308.45
49,4899,-0.939822,0.043692,0.202905,127.06,-416.09,-107.44
50,4999,-0.937537,0.042081,0.230636,-137.94,-2777.09,-417.44
1,0,-0.007438,0.003184,1.000855,19.06,54.91,-19.44
2,99,-0.013597,0.004828,1.000575,22.02,35.87,-35.48
3,199,-0.018924,0.007068,1.000153,18.03,52.88,-146.47
4,299,-0.020210,0.007672,0.999594,58.04,163.89,49.54
5,399,-0.021029,0.006245,1.002963,164.03,475.88,152.53
6,499,-0.029690,0.009645,1.002055,92.03,232.88,-256.47
7,599,-0.032474,0.009551,1.001467,245.03,499.88,298.53
8,699,-0.044362,0.014177,0.995674,246.04,594.89,-510.46
9,799,-0.059997,0.015656,0.996501,51.04,400.89,182.54
10,899,-0.060615,0.014367,0.997258,180.03,592.88,300.53
11,999,-0.048177,0.002872,0.996272,-110.97,1213.88,307.53
12,1109,-0.022755,-0.014993,0.996935,9477.03,16374.88,-5970.47
13,1209,-0.190002,0.146977,0.931215,8853.03,14568.88,-3861.47
14,1309,-0.200471,0.129011,0.927062,-2012.96,5151.89,1071.54
15,1419,-0.256978,0.125057,0.897604,-5116.96,7497.89,-3610.46
16,1519,-0.352304,0.080772,0.938483,-548.95,8790.90,-2770.45
17,1619,-0.420954,0.067097,0.934594,-1299.96,9256.89,-335.46
18,1719,-0.469711,0.074701,0.860885,-813.95,10921.90,-525.45
19,1829,-0.535636,0.054265,0.816744,-322.97,4369.88,466.53
20,1929,-0.580467,0.067986,0.759578,858.04,6112.89,162.54
21,2029,-0.613757,0.064781,0.695623,-294.95,16194.90,16.55
22,2139,-0.672156,0.064931,0.582100,-1338.96,17011.89,-792.46
23,2239,-0.728955,0.042756,0.457536,-1105.96,3675.89,-296.46
24,2339,-0.766852,0.050550,0.361709,548.03,-2499.12,452.53
25,2439,-0.793974,0.050253,0.292872,-9.97,1082.88,-75.47
26,2539,-0.826165,0.047217,0.226560,-332.97,1369.88,-116.47
27,2649,-0.848949,0.046779,0.170030,91.03,-269.12,-6.47
28,2749,-0.867675,0.046407,0.122053,-5.96,120.89,11.54
29,2849,-0.885314,0.045394,0.080979,194.02,-625.13,27.52
30,2949,-0.898530,0.047134,0.046432,116.03,-363.12,37.53
31,3059,-0.912090,0.046763,0.018624,107.03,-939.12,126.53
32,3159,-0.926765,0.047107,-0.006020,83.02,-706.13,75.52
33,3259,-0.940301,0.049817,-0.024861,58.02,-3712.13,380.52
34,3359,-0.944281,0.051076,-0.025990,77.01,-3426.14,199.51
35,3469,-0.952791,0.050480,-0.023233,78.02,-3172.13,178.52
36,3569,-0.959035,0.052500,-0.014187,43.03,-5024.12,279.53
37,3669,-0.962054,0.058374,0.006136,-322.97,-6239.12,407.53
38,3769,-0.959769,0.060107,0.036062,33.00,-5662.15,27.50
39,3879,-0.960243,0.063320,0.069429,-64.99,-5976.14,-138.49
40,3979,-0.951161,0.062316,0.114764,-20.98,-5766.13,85.52
41,4079,-0.939651,0.061663,0.163462,-44.99,-5264.14,55.51
42,4189,-0.926114,0.062867,0.212984,-195.99,-5402.14,193.51
43,4289,-0.892324,0.056785,0.269654,-1572.00,-6194.15,813.50
44,4389,-0.873929,0.059617,0.322986,-494.99,-4297.14,644.51
45,4489,-0.854174,0.060743,0.374471,-456.99,-4694.14,702.51
46,4589,-0.831010,0.063604,0.423928,-331.00,-5993.15,727.50
47,4699,-0.780888,0.060030,0.511908,317.02,-624.13,-551.48
48,4799,-0.765988,0.063291,0.547634,215.01,-307.14,-246.49
49,4899,-0.741440,0.065935,0.583110,97.00,-15.15,-11.50
50,4999,-0.722716,0.067742,0.612111,86.01,122.86,94.51
1,0,-0.016174,0.006205,1.000195,50.00,106.85,-6.50
2,99,-0.029354,0.011039,0.999684,-0.98,-88.13,-38.48
3,199,-0.038415,0.014563,0.999323,-0.00,68.85,-41.50
4,299,-0.047124,0.016880,0.999858,169.02,395.87,-5.48
5,399,-0.055369,0.019821,0.999599,353.02,809.87,-54.48
6,499,-0.064702,0.023785,0.999342,448.01,1073.86,-67.49
7,599,-0.076353,0.028710,0.997439,218.01,660.86,-522.49
8,699,-0.086036,0.034875,0.995125,248.02,311.87,-183.48
9,799,-0.092985,0.037680,0.992665,311.02,720.87,-0.48
10,899,-0.102443,0.040283,0.989053,246.02,840.87,-327.48
11,999,-0.107517,0.042625,0.997849,229.02,617.87,303.52
12,1109,-0.114266,0.045145,0.996701,842.00,1880.85,-466.50
13,1209,-0.147851,0.049413,0.999552,503.02,1066.87,-73.48
14,1309,-0.151241,0.054175,0.997672,200.01,628.86,77.51
15,1419,-0.159597,0.063148,0.986260,390.01,1101.86,-101.49
16,1519,-0.158130,0.062627,0.991519,828.02,1407.87,-28.48
17,1619,-0.151189,0.059566,0.984454,1494.00,3191.85,-1055.50
18,1719,-0.157923,0.061981,0.974567,8150.02,14336.87,-3848.48
19,1829,-0.174853,0.065719,0.934467,-2779.98,3511.87,-2458.48
20,1929,-0.245658,0.091601,0.887675,-7630.99,-747.14,-175.49
21,2029,-0.240950,0.056416,0.919789,-2761.99,3409.86,-54.49
22,2139,-0.388505,0.063699,0.916452,-2003.98,10206.87,-2370.48
23,2239,-0.439842,0.032462,0.915154,-3701.99,4071.86,1883.51
24,2339,-0.478021,0.024935,0.892334,-655.99,8850.86,2116.51
25,2439,-0.522760,0.013905,0.861201,-1243.98,11512.87,2383.52
26,2539,-0.577690,0.011139,0.793684,-326.00,17259.86,3476.50
27,2649,-0.647029,0.005547,0.708171,-601.97,8378.88,466.53
28,2749,-0.701134,0.010005,0.609410,-699.98,4803.87,735.52
29,2849,-0.745237,0.006725,0.538812,-1412.98,4478.87,899.52
30,2949,-0.782670,0.009925,0.461060,-829.99,6308.86,2654.51
31,3059,-0.814103,0.022112,0.374226,-263.97,4541.88,2193.53
32,3159,-0.840931,0.034906,0.294520,-154.98,489.87,93.52
33,3259,-0.861959,0.044591,0.231202,-15.99,-167.14,-64.49
34,3359,-0.880547,0.052072,0.176960,-103.98,2082.87,1030.52
35,3469,-0.895138,0.064364,0.117250,-20.99,370.86,-3.49
36,3569,-0.906863,0.070472,0.077940,-76.99,-168.14,183.51
37,3669,-0.917012,0.077825,0.040517,-75.98,1317.87,244.52
38,3769,-0.923990,0.084826,0.004368,-10.96,1019.89,412.54
39,3879,-0.930032,0.090795,-0.026268,-8.98,924.87,229.52
40,3979,-0.935351,0.097022,-0.056025,-24.98,1358.87,586.52
41,4079,-0.939543,0.104219,-0.085292,4.01,1252.86,509.51
42,4189,-0.942593,0.111032,-0.112824,86.01,-483.14,-171.49
43,4289,-0.945790,0.114480,-0.130275,120.02,-1651.13,-690.48
44,4389,-0.948672,0.116275,-0.142490,82.01,-966.14,-419.49
45,4489,-0.952257,0.117197,-0.152434,59.01,-472.14,-150.49
46,4589,-0.954370,0.118493,-0.159988,84.03,-585.12,-99.47
47,4699,-0.957173,0.118149,-0.164048,41.03,-647.12,-245.47
48,4799,-0.959044,0.118698,-0.167443,25.01,-67.14,-1.49
49,4899,-0.961329,0.118963,-0.169560,45.03,-866.12,-321.47
50,4999,-0.964553,0.116717,-0.167405,47.02,-487.13,-120.48
1,0,-0.002844,0.004465,0.999207,-0.98,-27.13,36.52
2,99,-0.005663,0.007932,0.999558,23.03,118.88,-22.47
3,199,-0.008225,0.010310,0.999857,50.01,166.86,122.51
4,299,-0.009450,0.012698,1.000495,179.03,455.88,83.53
5,399,-0.013348,0.015900,1.000250,300.03,662.88,0.53
6,499,-0.017503,0.018731,0.999475,333.03,755.88,9.53
7,599,-0.021145,0.021028,1.000170,657.02,1417.87,-26.48
8,699,-0.028269,0.025232,0.999114,850.03,1870.88,-75.47
9,799,-0.041411,0.029941,0.998032,611.02,1409.87,-299.48
10,899,-0.053094,0.035408,0.996381,452.02,1117.87,-29.48
11,999,-0.065021,0.039140,0.997943,863.03,1862.88,-14.47
12,1109,-0.081896,0.043869,0.996250,875.04,2174.89,352.54
13,1209,-0.111767,0.058362,0.986590,271.04,1287.89,457.54
14,1309,-0.129523,0.057076,0.993997,389.03,1517.88,565.53
15,1419,-0.146299,0.066274,0.994196,1203.04,2814.89,197.54
16,1519,-0.129980,0.057100,0.998156,3271.04,6704.89,-1231.46
17,1619,-0.358505,0.306602,0.820247,5510.02,7995.87,-4932.48
18,1719,-0.366789,0.280476,0.821386,659.04,1961.89,803.54
19,1829,-0.393953,0.271124,0.823582,-685.97,1149.88,1476.53
20,1929,-0.403823,0.263687,0.827718,130.03,3017.88,353.53
21,2029,-0.432793,0.253135,0.837643,-276.96,4297.89,-713.46
22,2139,-0.477083,0.263448,0.806656,-3974.97,4554.88,-2168.47
23,2239,-0.377566,0.235794,0.741682,-1317.96,575.89,-286.46
24,2339,-0.436073,0.230452,0.737871,-548.97,10175.88,-1873.47
25,2439,-0.585028,0.217360,0.725421,-2833.96,5753.89,-918.46
26,2539,-0.624355,0.189624,0.692517,-1691.99,941.86,114.51
27,2649,-0.638336,0.175736,0.677678,-1057.96,5690.89,174.54
28,2749,-0.671021,0.173140,0.613301,-239.96,13112.89,-1365.46
29,2849,-0.710997,0.156341,0.538878,-395.96,12517.89,-920.46
30,2949,-0.753144,0.138546,0.460074,-509.95,11558.90,-845.45
31,3059,-0.802226,0.119336,0.366667,-174.97,5392.88,-44.47
32,3159,-0.832245,0.106066,0.292325,13.03,-165.12,55.53
33,3259,-0.852451,0.095080,0.234738,-108.96,1156.89,142.54
34,3359,-0.868363,0.085723,0.180021,-198.97,5334.88,849.53
35,3469,-0.886557,0.083794,0.105679,23.04,1466.89,613.54
36,3569,-0.893947,0.077503,0.064242,12.04,-424.11,-50.46
37,3669,-0.904348,0.073639,0.015123,-465.96,2612.89,974.54
38,3769,-0.913208,0.073706,-0.027782,-106.95,241.90,139.55
39,3879,-0.920647,0.072408,-0.062494,-215.96,889.89,353.54
40,3979,-0.927062,0.071780,-0.094288,-53.97,224.88,118.53
41,4079,-0.931251,0.071613,-0.119902,196.04,-662.11,-253.46
42,4189,-0.937229,0.069200,-0.138434,929.04,-2903.11,-851.46
43,4289,-0.936579,0.066032,-0.142357,168.02,-1688.13,-247.48
44,4389,-0.942418,0.063632,-0.151808,74.00,208.85,21.50
45,4489,-0.947819,0.061739,-0.160610,176.03,-689.12,-240.47
46,4589,-0.951642,0.058847,-0.163386,108.01,-494.14,-116.49
47,4699,-0.953957,0.056830,-0.165544,18.02,-195.13,-25.48
48,4799,-0.957739,0.054345,-0.168807,60.01,-284.14,-52.49
49,4899,-0.961374,0.052691,-0.170427,128.00,-1281.15,-164.50
50,4999,-0.964482,0.051156,-0.167281,144.00,-2153.15,-278.50
1,0,-0.007037,0.002835,0.999628,89.00,221.85,82.50
2,99,-0.012580,0.006490,0.999439,113.98,321.83,48.48
3,199,-0.019654,0.010531,0.998601,91.98,281.83,79.48
4,299,-0.023176,0.013746,0.998183,94.99,263.84,133.49
5,399,-0.027305,0.017778,1.000188,210.98,398.83,238.48
6,499,-0.030998,0.020363,1.000208,550.96,1306.81,-52.54
7,599,-0.037506,0.024447,1.001910,835.99,1992.84,-204.51
8,699,-0.054976,0.033045,1.001563,839.98,1957.83,-236.52
9,799,-0.067995,0.039566,0.999161,484.98,1131.83,-114.52
10,899,-0.075784,0.041300,0.999665,1058.98,2344.83,-162.52
11,999,-0.098901,0.050959,0.997713,1202.99,2607.84,-272.51
12,1109,-0.123331,0.061458,0.990067,651.98,1334.83,204.48
13,1209,-0.136350,0.066445,0.988254,812.98,2099.83,176.48
14,1309,-0.159061,0.076965,0.981514,1099.02,2778.87,524.52
15,1419,-0.155552,0.079645,0.951578,-2990.02,2487.83,-1478.52
16,1519,-0.322417,0.293153,0.820682,-1284.01,12229.84,-5278.51
17,1619,-0.346681,0.266993,0.822104,-315.01,3983.84,-3647.51
18,1719,-0.393123,0.216870,0.855941,-2625.01,3736.84,19.49
19,1829,-0.419341,0.189885,0.865111,-2245.00,-1074.15,1221.50
20,1929,-0.435895,0.172294,0.830974,-2735.00,6512.85,1224.50
21,2029,-0.428562,0.099298,0.868096,1479.99,9411.84,846.49
22,2139,-0.496486,0.105036,0.783908,955.00,17463.85,5486.50
23,2239,-0.557938,0.094680,0.706489,-729.00,17106.85,-1981.50
24,2339,-0.651408,0.088110,0.600455,-3345.00,6598.85,849.50
25,2439,-0.703941,0.074122,0.533745,392.00,-2064.15,97.50
26,2539,-0.738926,0.065437,0.483084,-155.99,1053.86,39.51
27,2649,-0.772600,0.058255,0.431361,-1438.01,2744.84,288.49
28,2749,-0.806277,0.050521,0.384284,-1613.00,2984.85,265.50
29,2849,-0.829721,0.045851,0.333611,-1037.01,2343.84,169.49
30,2949,-0.853730,0.040820,0.286988,-909.98,3594.87,323.52
31,3059,-0.880657,0.039639,0.233698,-337.00,2339.85,376.50
32,3159,-0.895617,0.037627,0.193126,-61.00,530.85,437.50
33,3259,-0.910786,0.036338,0.156039,-224.00,1886.85,856.50
34,3359,-0.925913,0.037751,0.122007,-1689.98,2894.87,122.52
35,3469,-0.932418,0.032104,0.079951,-671.99,2225.86,-77.49
36,3569,-0.938844,0.036734,0.044479,23.01,1342.86,1369.51
37,3669,-0.946998,0.040541,0.009566,-368.01,2665.84,1103.49
38,3769,-0.947759,0.048813,-0.026336,-284.01,3180.84,1981.49
39,3879,-0.948442,0.060476,-0.065916,-254.02,1987.83,972.48
40,3979,-0.948547,0.070188,-0.098827,38.99,39.84,204.49
41,4079,-0.948214,0.078810,-0.127240,89.00,-429.15,-151.50
42,4189,-0.949049,0.085186,-0.150403,185.98,-1014.17,-465.52
43,4289,-0.948825,0.089489,-0.166264,297.00,-2281.15,-1146.50
44,4389,-0.952185,0.088624,-0.173136,319.01,-2609.14,-1438.49
45,4489,-0.955281,0.085673,-0.173740,220.98,-1668.17,-945.52
46,4589,-0.958461,0.082414,-0.172844,207.00,-1528.15,-844.50
47,4699,-0.961219,0.076787,-0.167523,308.00,-2788.15,-1481.50
48,4799,-0.962501,0.063600,-0.142419,317.00,-1516.15,-122.50
49,4899,-0.965642,0.058562,-0.135308,116.01,-126.14,-101.49
50,4999,-0.970894,0.053492,-0.130106,335.98,-1072.17,-58.52
1,0,-0.017090,0.002689,1.000085,96.00,272.85,37.50
2,99,-0.033905,0.005762,0.999682,73.01,180.86,-62.49
3,199,-0.042081,0.008008,0.998772,80.02,164.87,411.52
4,299,-0.051302,0.010064,0.995105,-14.99,487.86,510.51
5,399,-0.062821,0.013697,0.996291,72.01,692.86,500.51
6,499,-0.074369,0.016254,0.995468,103.02,338.87,-4.48
7,599,-0.077098,0.014345,0.997937,48.02,775.87,349.52
8,699,-0.088336,0.016677,1.000584,709.02,1644.87,-714.48
9,799,-0.107116,0.018256,1.004922,320.01,747.86,36.51
10,899,-0.077377,-0.000910,1.007894,1964.99,5400.84,-1269.51
11,999,-0.119079,0.023760,0.938259,7559.00,17343.86,-6073.50
12,1109,-0.166885,0.020083,0.911681,-10558.00,-1790.15,-1789.50
13,1209,-0.219238,0.038474,0.895278,-1519.97,4819.88,-3234.47
14,1309,-0.253118,0.028049,0.879157,-3924.99,6883.86,-797.49
15,1419,-0.291694,0.017485,0.853716,-3627.99,10037.86,570.51
16,1519,-0.364895,-0.028609,0.854248,-2235.99,10210.87,2759.51
17,1619,-0.419774,-0.021372,0.795410,-2124.99,10688.86,3488.51
18,1719,-0.457906,-0.018553,0.725348,-1346.98,16059.87,5249.52
19,1829,-0.566819,-0.001655,0.598083,-3146.98,15470.87,3629.52
20,1929,-0.610653,-0.005364,0.501297,2413.02,10204.87,1366.52
21,2029,-0.678838,0.001865,0.387278,-991.96,3561.89,177.54
22,2139,-0.718339,0.007406,0.311200,500.02,-1902.13,68.52
23,2239,-0.756052,0.012463,0.244702,-329.98,1679.87,-36.48
24,2339,-0.794628,0.014363,0.181916,-17.99,685.86,552.51
25,2439,-0.816321,0.021947,0.128640,154.01,-957.14,-256.49
26,2539,-0.837800,0.023102,0.091394,305.00,-937.15,42.50
27,2649,-0.859535,0.026226,0.056237,46.01,-29.14,-86.49
28,2749,-0.878652,0.028258,0.027031,404.00,-1625.15,-51.50
29,2849,-0.893839,0.028100,0.012479,501.00,-1950.15,-94.50
30,2949,-0.910850,0.026995,-0.000038,91.99,-3850.16,-231.51
31,3059,-0.912529,0.021386,0.003807,-236.01,-6379.16,-637.51
32,3159,-0.919961,0.022131,0.016944,62.99,-3240.16,-598.51
33,3259,-0.929959,0.021134,0.030143,77.00,-2725.15,-445.50
34,3359,-0.933331,0.020323,0.048009,426.99,-1802.16,-122.51
35,3469,-0.939346,0.020018,0.063269,87.99,-253.16,-25.51
36,3569,-0.944074,0.018844,0.079682,192.00,-826.15,-28.50
37,3669,-0.946390,0.017882,0.095134,141.00,-223.15,-35.50
38,3769,-0.950629,0.017046,0.106420,124.99,-269.16,-31.51
39,3879,-0.953647,0.017434,0.117202,134.98,-670.17,-47.52
40,3979,-0.955919,0.017105,0.127136,165.98,-958.17,-47.52
41,4079,-0.954499,0.015452,0.143271,214.00,-1002.15,-13.50
42,4189,-0.953476,0.014632,0.155355,428.98,76.83,-165.52
43,4289,-0.956286,0.015108,0.161617,330.99,462.84,-137.51
44,4389,-0.956954,0.015054,0.167654,192.99,297.84,-77.51
45,4489,-0.961183,0.014990,0.169709,45.98,220.83,-44.52
46,4589,-0.960512,0.014680,0.175027,53.98,-231.17,-14.52
47,4699,-0.961352,0.013280,0.178448,56.99,-17.16,-28.51
48,4799,-0.959392,0.012970,0.183919,63.99,-204.16,-19.51
49,4899,-0.960271,0.013182,0.186977,12.98,78.83,-4.52
50,4999,-0.960927,0.013380,0.189960,2.98,20.83,-1.52
1,0,-0.031354,0.002854,0.996478,8.99,53.84,36.49
2,99,-0.059158,0.005499,0.992423,80.00,172.85,99.50
3,199,-0.083250,0.009432,0.989543,124.99,483.84,64.49
4,299,-0.104808,0.011237,0.987169,78.99,477.84,104.49
5,399,-0.119452,0.012533,0.983448,25.99,271.84,173.49
6,499,-0.135360,0.012866,0.981951,136.01,841.86,102.51
7,599,-0.137840,0.010146,0.967697,-694.99,1548.86,-1243.49
8,699,-0.172395,0.021439,0.943148,-1478.01,4284.84,-2345.51
9,799,-0.265176,0.016023,1.029508,6493.01,2374.86,-595.49
10,899,-0.296505,0.017407,1.010720,813.01,2879.86,706.51
11,999,-0.323209,0.029863,0.988342,-1763.00,1794.85,154.50
12,1109,-0.346053,0.016262,0.975766,-3984.00,1907.85,-9.50
13,1209,-0.347618,0.003200,0.945575,-4702.00,3610.85,125.50
14,1309,-0.363157,-0.009166,0.918027,-3390.00,9226.85,337.50
15,1419,-0.416044,-0.030188,0.894136,-2396.00,14595.85,1637.50
16,1519,-0.473633,-0.039047,0.824554,4374.00,22474.85,3520.50
17,1619,-0.585077,-0.048153,0.767552,2832.99,25035.84,9807.49
18,1719,-0.660817,-0.054117,0.644264,-1040.01,5146.84,253.49
19,1829,-0.706408,-0.041717,0.545641,185.02,-2022.13,-269.48
20,1929,-0.746755,-0.033851,0.465455,-218.02,2788.83,533.48
21,2029,-0.782001,-0.023356,0.383180,184.00,4781.85,1586.50
22,2139,-0.813169,-0.011121,0.303394,-52.00,3013.85,1309.50
23,2239,-0.837904,0.002318,0.229827,130.00,-168.15,63.50
24,2339,-0.858544,0.011452,0.174308,340.01,-3282.14,-1160.49
25,2439,-0.878066,0.014419,0.137975,285.99,-3609.16,-1492.51
26,2539,-0.898376,0.016630,0.110297,149.00,-1412.15,-486.50
27,2649,-0.913425,0.019570,0.087666,89.97,-1353.18,-347.53
28,2749,-0.925942,0.019653,0.072752,182.99,-1907.16,-315.51
29,2849,-0.932992,0.018515,0.067803,73.00,-980.15,-116.50
30,2949,-0.941402,0.018152,0.060666,40.99,-306.16,-26.51
31,3059,-0.948148,0.017092,0.054599,360.97,-2100.18,-188.53
32,3159,-0.953680,0.017363,0.058634,715.98,-2503.17,-247.52
33,3259,-0.957265,0.019865,0.064024,484.99,-1463.16,-168.51
34,3359,-0.960863,0.017486,0.072834,222.98,-12.17,-26.52
35,3469,-0.960918,0.016105,0.080817,-20.03,-429.18,2.47
36,3569,-0.967556,0.014931,0.082787,61.98,363.83,-19.52
37,3669,-0.968419,0.014410,0.088820,-87.01,-963.16,-21.51
38,3769,-0.968439,0.014351,0.093984,172.98,107.83,-1.52
39,3879,-0.969865,0.013532,0.097660,22.99,134.84,-5.51
40,3979,-0.970876,0.012488,0.101791,-4.01,-208.16,5.49
41,4079,-0.971589,0.012168,0.105065,-7.00,-105.15,-10.50
42,4189,-0.972433,0.012446,0.105321,408.98,-217.17,-19.52
43,4289,-0.971375,0.011839,0.110555,171.98,342.83,-8.52
44,4389,-0.975638,0.012587,0.107222,536.98,58.83,-31.52
45,4489,-0.974483,0.012069,0.110981,127.99,-166.16,-8.51
46,4589,-0.975498,0.011831,0.111467,23.99,203.84,-8.51
47,4699,-0.975756,0.011445,0.112923,103.98,-123.17,9.48
48,4799,-0.977294,0.013057,0.111835,386.98,238.83,-34.52
49,4899,-0.977374,0.012597,0.113748,180.98,-135.17,-9.52
50,4999,-0.976765,0.012279,0.115997,39.98,264.83,0.48
1,0,-0.025696,0.007248,0.997247,312.98,821.83,25.48
2,99,-0.052629,0.014708,0.993918,500.97,1073.82,47.47
3,199,-0.078232,0.020995,0.990741,378.97,968.82,92.47
4,299,-0.098749,0.026980,0.987967,317.97,920.82,133.47
5,399,-0.124446,0.033550,0.985188,535.98,1527.83,43.48
6,499,-0.149658,0.042723,0.982203,809.97,2120.82,199.47
7,599,-0.172095,0.049348,0.978128,1288.98,2851.83,248.48
8,699,-0.206511,0.064959,0.965491,1078.98,2118.83,17.48
9,799,-0.225218,0.070648,0.961505,671.98,1660.83,496.48
10,899,-0.220281,0.073872,0.952826,2788.97,6548.82,-587.53
11,999,-0.274862,0.092360,0.914651,-659.02,1452.83,-276.52
12,1109,-0.301498,0.098461,0.893334,-6558.02,-596.17,-728.52
13,1209,-0.323480,0.084623,0.913521,153.98,3025.83,-2689.52
14,1309,-0.329145,0.068685,0.901071,-2636.02,4727.83,-1089.52
15,1419,-0.355641,0.077752,0.866814,-2895.03,8558.82,-207.53
16,1519,-0.396034,0.073337,0.814092,-2373.03,10656.82,258.47
17,1619,-0.424086,0.049369,0.775212,-660.02,9961.83,1723.48
18,1719,-0.476551,0.040258,0.741193,-434.02,11006.83,2388.48
19,1829,-0.544199,0.030078,0.650351,-786.03,13445.82,234.47
20,1929,-0.609298,0.029463,0.570901,-310.02,11253.83,806.48
21,2029,-0.674447,0.029124,0.481927,-949.01,7287.84,514.49
22,2139,-0.726106,0.027206,0.405347,-1296.02,1315.83,172.48
23,2239,-0.765256,0.028340,0.339247,-379.02,891.83,76.48
24,2339,-0.800200,0.027419,0.284728,-476.02,1631.83,667.48
25,2439,-0.828180,0.030865,0.228005,-459.01,2910.84,1144.49
26,2539,-0.849492,0.038208,0.172961,-244.01,2150.84,801.49
27,2649,-0.870226,0.043625,0.122108,-361.02,1273.83,163.48
28,2749,-0.885505,0.050151,0.076851,46.98,92.83,-71.52
29,2849,-0.900489,0.052861,0.042007,69.97,-963.18,-249.53
30,2949,-0.910991,0.053114,0.017078,-266.02,1693.83,446.48
31,3059,-0.923269,0.057503,-0.016087,-282.02,3321.83,1575.48
32,3159,-0.926052,0.068339,-0.052590,-106.03,1507.82,799.47
33,3259,-0.933269,0.073832,-0.081164,115.97,-805.18,-179.53
34,3359,-0.933471,0.078592,-0.103731,273.97,-2476.18,-1033.53
35,3469,-0.937378,0.079691,-0.114527,383.98,-4091.17,-2200.52
36,3569,-0.945094,0.073081,-0.111728,319.98,-4474.17,-2222.52
37,3669,-0.950242,0.069769,-0.106877,376.97,-958.18,-19.53
38,3769,-0.953721,0.064428,-0.098066,158.98,-1570.17,-166.52
39,3879,-0.958435,0.062103,-0.091328,46.99,-34.16,-34.51
40,3979,-0.969657,0.059266,-0.088713,254.98,-1718.17,-202.52
41,4079,-0.971964,0.055445,-0.074497,659.97,-3393.18,-159.53
42,4189,-0.972038,0.050275,-0.052727,70.97,-2829.18,-250.53
43,4289,-0.973914,0.047601,-0.032648,144.98,-2193.17,-162.52
44,4389,-0.974574,0.043698,-0.009318,153.97,-2374.18,-206.53
45,4489,-0.978725,0.041114,0.008754,329.98,-1884.17,-88.52
46,4589,-0.979781,0.037305,0.033051,147.97,-3960.18,-318.53
47,4699,-0.976998,0.035277,0.062987,58.97,-5163.18,-308.53
48,4799,-0.965569,0.026869,0.110185,-261.03,-5593.18,-370.53
49,4899,-0.953583,0.030325,0.149901,106.97,-57.18,-0.53
50,4999,-0.950775,0.027640,0.179082,8.96,-198.19,2.46
1,0,-0.004402,-0.009488,1.002502,-88.04,97.81,1026.46
2,99,-0.008948,-0.010393,0.997488,245.99,214.84,80.49
3,199,-0.015303,-0.005615,0.996247,-16.02,98.83,-719.52
4,299,-0.014332,-0.006149,0.994735,-171.02,78.83,638.48
5,399,-0.014734,-0.006969,0.992277,-71.01,195.84,549.49
6,499,-0.015021,-0.007758,0.995151,22.98,168.83,124.48
7,599,-0.014825,-0.008501,0.988474,-179.00,210.85,1016.50
8,699,-0.011363,-0.014169,0.994482,82.97,1186.82,606.47
9,799,0.013773,-0.042021,1.002206,1630.99,2571.84,-3052.51
10,899,0.041107,-0.033652,1.010090,7272.97,13887.82,-2434.53
11,999,-0.052847,-0.006635,0.957649,11378.98,20552.83,-6931.52
12,1109,-0.151805,-0.009213,0.975439,-8158.02,522.83,-826.52
13,1209,-0.135981,0.009195,0.926145,169.99,6370.84,585.49
14,1309,-0.219905,0.023413,0.932896,-2812.01,6413.84,-1907.51
15,1419,-0.268170,0.017280,0.911553,-453.00,7564.85,-52.50
16,1519,-0.340505,0.025269,0.880685,-164.01,10105.84,784.49
17,1619,-0.267005,0.074961,0.741435,1177.99,10224.84,2432.49
18,1719,-0.341384,0.070360,0.714589,-1218.01,10098.84,1301.49
19,1829,-0.419217,0.066926,0.656008,961.98,14943.83,351.48
20,1929,-0.553014,0.065985,0.550423,-1490.00,6318.85,119.50
21,2029,-0.619830,0.060351,0.488398,538.00,-2616.15,2.50
22,2139,-0.663623,0.059535,0.448439,120.00,-872.15,-26.50
23,2239,-0.706817,0.057377,0.409054,-462.00,4301.85,216.50
24,2339,-0.754774,0.052906,0.362833,-417.01,1838.84,83.49
25,2439,-0.783928,0.053024,0.325779,-296.98,339.87,71.52
26,2539,-0.812170,0.049828,0.295052,-1000.00,2285.85,144.50
27,2649,-0.839344,0.049218,0.261609,-257.02,280.83,26.48
28,2749,-0.860849,0.049431,0.230638,-145.01,513.84,21.49
29,2849,-0.880941,0.048861,0.203452,-49.01,-82.16,-0.51
30,2949,-0.896041,0.048744,0.181625,65.99,-463.16,-89.51
31,3059,-0.909939,0.047545,0.164794,44.99,-802.16,-39.51
32,3159,-0.918437,0.047478,0.153618,13.99,-200.16,-26.51
33,3259,-0.931209,0.048080,0.138773,5.99,-857.16,-14.51
34,3359,-0.936919,0.047421,0.136041,-30.00,-1210.15,-40.50
35,3469,-0.942140,0.046860,0.132823,1.00,-117.15,4.50
36,3569,-0.948939,0.047464,0.127706,36.99,-459.16,-23.51
37,3669,-0.954553,0.047885,0.123541,-11.00,-822.15,-5.50
38,3769,-0.959710,0.046889,0.124175,96.00,-2049.15,-47.50
39,3879,-0.960743,0.046060,0.132202,-90.00,-3544.15,-31.50
40,3979,-0.955505,0.044733,0.151203,-5.00,-2124.15,-39.50
41,4079,-0.952829,0.044832,0.165137,50.00,1301.85,11.50
42,4189,-0.957768,0.045447,0.168614,74.00,1032.85,10.50
43,4289,-0.962187,0.045530,0.169664,-21.01,-1608.16,-25.51
44,4389,-0.958270,0.045820,0.181983,2.00,-2214.15,-16.50
45,4489,-0.954355,0.045866,0.195292,17.99,-418.16,-18.51
46,4589,-0.953408,0.045538,0.205177,-8.00,-66.15,-21.50
47,4699,-0.954196,0.045077,0.212132,9.00,-237.15,-19.50
48,4799,-0.953876,0.045271,0.219821,-9.00,-658.15,-20.50
49,4899,-0.953239,0.044996,0.227198,4.99,-270.16,-33.51
50,4999,-0.950939,0.045751,0.235537,-32.00,-410.15,9.50
1,0,-0.000922,0.005948,1.001477,339.00,591.85,-32.50
2,99,0.000398,0.011607,1.002805,557.92,1158.77,28.42
3,199,-0.003240,0.017571,1.001828,849.94,1684.79,-58.56
4,299,-0.011752,0.026046,0.998745,844.94,1767.79,-137.56
5,399,-0.018914,0.034312,0.997389,628.96,1297.81,-132.54
6,499,-0.029854,0.040990,1.000850,712.96,1495.81,-315.54
7,609,-0.039867,0.049999,0.996560,1192.95,2315.80,-300.55
8,709,-0.060335,0.059836,0.996666,1158.96,2361.81,-401.54
9,809,-0.079234,0.074569,0.985697,995.95,2119.80,417.45
10,909,-0.096818,0.081618,0.984998,1077.97,2392.82,-48.53
11,1009,-0.113778,0.090960,0.973088,863.97,2342.82,24.47
12,1119,-0.110049,0.091649,0.967468,4570.96,8650.81,-1165.54
13,1219,-0.180616,0.129003,0.913327,3071.95,2755.80,-2515.55
14,1319,-0.219430,0.133782,0.894918,638.96,-1115.19,349.46
15,1429,-0.248412,0.149143,0.896575,358.97,2650.82,-659.53
16,1529,-0.280261,0.171885,0.875059,388.98,5909.83,-2287.52
17,1629,-0.328537,0.182867,0.857538,602.97,6734.82,-2009.53
18,1729,-0.372080,0.189674,0.841804,962.95,6625.80,-1580.55
19,1839,-0.420828,0.191487,0.814605,-373.03,6330.82,-1287.53
20,1939,-0.458676,0.197056,0.772919,-740.03,8601.82,-2156.53
21,2039,-0.511408,0.179982,0.739519,-940.03,9888.82,-2502.53
22,2149,-0.594134,0.169644,0.662661,-400.02,6678.83,-1425.52
23,2249,-0.664908,0.152013,0.597917,-110.03,2285.82,-434.53
24,2349,-0.699102,0.150814,0.541036,-2121.03,1738.82,482.47
25,2449,-0.724102,0.140054,0.501494,-2639.02,2890.83,-1007.52
26,2549,-0.753427,0.119007,0.467590,-716.01,6107.84,-2509.51
27,2659,-0.803292,0.099084,0.415481,-1090.01,5677.84,-1587.51
28,2759,-0.829746,0.087020,0.354728,-467.01,1250.84,499.49
29,2859,-0.850842,0.076014,0.307005,-986.02,3904.83,1445.48
30,2959,-0.873534,0.073453,0.250639,-346.03,1772.82,674.47
31,3069,-0.887914,0.070745,0.207233,-320.02,1618.83,616.48
32,3169,-0.902884,0.070604,0.161218,-403.01,2871.84,1128.49
33,3269,-0.915627,0.074054,0.115899,-104.02,964.83,336.48
34,3369,-0.926074,0.075230,0.079373,-52.02,342.83,115.48
35,3479,-0.934643,0.077565,0.047265,29.99,485.84,66.49
36,3579,-0.941103,0.079202,0.018855,39.97,-214.18,-70.53
37,3679,-0.947087,0.080484,-0.005000,55.99,-365.16,-122.51
38,3779,-0.952028,0.081519,-0.024490,26.97,-148.18,-50.53
39,3889,-0.955971,0.082142,-0.040506,47.98,-308.17,-109.52
40,3989,-0.959542,0.082763,-0.053315,-18.01,74.84,20.49
41,4089,-0.962853,0.083603,-0.065337,77.98,-265.17,-106.52
42,4199,-0.965684,0.082815,-0.074036,70.00,-121.15,-43.50
43,4299,-0.967780,0.082603,-0.081101,37.00,-213.15,-81.50
44,4399,-0.969928,0.082588,-0.087125,33.99,-50.16,-20.51
45,4499,-0.972449,0.080505,-0.088820,119.00,-94.15,-25.50
46,4599,-0.974885,0.080786,-0.094913,506.00,-993.15,-360.50
47,4709,-0.975637,0.079121,-0.093426,568.00,-2817.15,-1055.50
48,4809,-0.976606,0.075526,-0.084582,351.00,-2011.15,-784.50
49,4909,-0.977284,0.071006,-0.075014,92.99,-794.16,-359.51
50,5009,-0.977621,0.066633,-0.065123,-4.00,17.85,2.50
1,0,-0.001764,0.005802,1.000928,799.99,1589.84,-269.51
2,99,-0.012418,0.014743,1.001826,726.02,1492.87,37.52
3,199,-0.022224,0.024322,1.003213,347.03,704.88,109.53
4,299,-0.026916,0.030907,1.006296,253.02,522.87,-15.48
5,399,-0.034914,0.038170,1.006151,133.02,334.87,-18.48
6,499,-0.044313,0.045040,1.000901,124.02,435.87,129.52
7,599,-0.050031,0.049524,0.997666,108.03,579.88,556.53
8,699,-0.053207,0.056907,0.993323,392.02,967.87,413.52
9,799,-0.054020,0.063072,0.987269,524.03,1369.88,-432.47
10,899,-0.055462,0.062929,0.989594,1107.02,2842.87,-465.48
11,999,-0.040392,0.056801,0.988439,5475.01,9614.86,-2991.49
12,1109,-0.131074,0.082739,0.954700,8282.01,12125.86,-4407.49
13,1209,-0.146318,0.090870,0.952901,582.04,2104.89,586.54
14,1309,-0.182072,0.110416,0.934490,-181.98,1839.87,1957.52
15,1419,-0.215448,0.122288,0.905383,-81.97,3012.88,879.53
16,1519,-0.248669,0.137432,0.869545,-3573.97,2996.88,-1749.47
17,1619,-0.206046,0.116229,0.779299,584.03,5617.88,-1185.47
18,1719,-0.313609,0.176301,0.755288,-7135.99,-852.14,-2983.49
19,1829,-0.339650,0.155548,0.743375,-5937.97,1758.88,-1490.47
20,1929,-0.444513,0.151330,0.784426,-3597.98,752.87,5325.52
21,2029,-0.460147,0.134176,0.790700,-482.98,7754.87,1215.52
22,2139,-0.497661,0.119193,0.753041,18.03,17559.88,-145.47
23,2239,-0.532313,0.143829,0.645737,-14.98,12307.87,-1426.48
24,2339,-0.591247,0.128880,0.581317,96.02,11176.87,-319.48
25,2439,-0.639437,0.116687,0.493344,155.03,16082.88,-287.47
26,2539,-0.748897,0.130200,0.343843,1708.03,7027.88,3974.53
27,2649,-0.777376,0.115648,0.277942,-68.98,832.87,489.52
28,2749,-0.814840,0.105751,0.206893,461.02,5581.87,2870.52
29,2849,-0.829857,0.101074,0.116765,-1165.97,3713.88,3436.53
30,2949,-0.843830,0.109000,0.044001,64.03,-519.12,-175.47
31,3059,-0.857026,0.111984,-0.006953,134.01,-497.14,-344.49
32,3159,-0.873716,0.114465,-0.055080,-78.98,510.87,557.52
33,3259,-0.881183,0.120730,-0.096573,425.03,-2350.12,-1049.47
34,3359,-0.899268,0.117834,-0.120619,614.01,-4443.14,-2580.49
35,3469,-0.909128,0.109916,-0.128441,296.01,145.86,251.51
36,3569,-0.916411,0.110473,-0.146992,91.02,-1044.13,-456.48
37,3669,-0.924616,0.106150,-0.155931,-28.99,-4414.14,-1743.49
38,3769,-0.933274,0.091927,-0.143790,22.01,-2771.14,-936.49
39,3879,-0.941128,0.084819,-0.138689,135.01,-125.14,-69.49
40,3979,-0.949452,0.079143,-0.135341,-15.99,-504.14,-199.49
41,4079,-0.955722,0.073238,-0.129438,152.01,-1413.14,-181.49
42,4189,-0.958561,0.068457,-0.121015,46.01,-345.14,-28.49
43,4289,-0.963061,0.063899,-0.115082,-67.99,268.86,-28.49
44,4389,-0.968773,0.060061,-0.111357,120.01,-850.14,-22.49
45,4489,-0.971229,0.057293,-0.104456,49.00,-834.15,-42.50
46,4589,-0.972310,0.054519,-0.096447,24.01,20.86,-1.49
47,4699,-0.976176,0.052436,-0.092222,46.01,-417.14,-22.49
48,4799,-0.978456,0.050702,-0.086305,97.00,-1001.15,1.50
49,4899,-0.979148,0.048697,-0.077448,64.99,-1065.16,19.49
50,4999,-0.981971,0.047469,-0.070232,24.01,-1036.14,-26.49
1,0,-0.013153,-0.002841,0.999701,294.00,161.85,-140.50
2,99,-0.027263,0.000457,0.997561,156.00,198.85,111.50
3,199,-0.039384,0.002968,0.994900,-0.99,128.86,30.51
4,299,-0.048864,0.001733,0.993809,11.99,49.84,327.49
5,399,-0.058459,0.001140,0.992260,-134.01,10.84,216.49
6,499,-0.066506,0.000490,0.992389,5.99,160.84,247.49
7,599,-0.061333,-0.003944,0.987647,-77.99,573.86,254.51
8,699,-0.053567,-0.009031,0.999089,2266.01,7825.86,-1765.49
9,799,-0.083038,-0.008357,0.981952,8500.99,14854.84,-4590.51
10,899,-0.158809,0.018987,0.933384,-446.00,486.85,1072.50
11,999,-0.209023,0.044371,0.918651,419.00,2085.85,-147.50
12,1109,-0.252694,0.058916,0.920063,-303.00,1422.85,867.50
13,1209,-0.279652,0.069375,0.904105,-3813.00,647.85,341.50
14,1309,-0.280941,0.036078,0.933553,-47.99,3293.86,-86.49
15,1419,-0.302820,0.083819,0.895815,423.00,2809.85,118.50
16,1519,-0.356005,0.088730,0.910430,788.00,6825.85,1019.50
17,1619,-0.431278,0.083475,0.888319,-7201.98,-1591.13,2031.52
18,1719,-0.638595,0.017191,1.036187,-3572.99,2739.86,2529.51
19,1829,-0.627535,0.030723,0.997830,-1193.99,9402.86,1183.51
20,1929,-0.636462,0.030306,0.942339,1530.02,15516.87,-1503.48
21,2029,-0.670875,0.033942,0.861481,-208.99,12748.86,-864.49
22,2139,-0.711351,0.041318,0.754189,-84.99,15385.86,-549.49
23,2239,-0.735098,0.040336,0.642007,-116.99,18288.86,-286.49
24,2339,-0.740781,0.030438,0.507028,433.03,6734.88,3322.53
25,2439,-0.774579,0.037424,0.394164,-166.97,2919.88,1153.53
26,2539,-0.804992,0.040011,0.302917,2094.01,2923.86,1939.51
27,2649,-0.818923,0.055247,0.202816,1962.01,5170.86,3145.51
28,2749,-0.829940,0.072043,0.108484,-99.98,2766.87,1646.52
29,2849,-0.839910,0.085257,0.031268,465.00,592.85,533.50
30,2949,-0.849281,0.096086,-0.034091,189.99,553.84,384.49
31,3059,-0.853566,0.095953,-0.064232,1977.01,-112.14,-36.49
32,3159,-0.872425,0.108950,-0.144727,474.00,1742.85,937.50
33,3259,-0.883455,0.112673,-0.188466,130.01,-599.14,-312.49
34,3359,-0.886093,0.115911,-0.222678,120.01,-406.14,-120.49
35,3469,-0.887548,0.120531,-0.255768,-198.00,979.85,337.50
36,3569,-0.889719,0.124256,-0.283711,448.00,-2013.15,-678.50
37,3669,-0.890703,0.127918,-0.304918,620.01,-4848.14,-1782.49
38,3769,-0.910546,0.125042,-0.316865,-587.00,-7784.15,-1641.50
39,3879,-0.916573,0.116482,-0.303161,189.99,-10488.16,-2403.51
40,3979,-0.914500,0.107246,-0.260439,422.00,-4815.15,222.50
41,4079,-0.934875,0.098536,-0.231670,-44.01,-6828.16,55.49
42,4189,-0.940512,0.094867,-0.184035,-204.00,-9908.15,252.50
43,4289,-0.924905,0.088965,-0.105734,-14.01,-5499.16,15.49
44,4389,-0.933887,0.085231,-0.054156,134.00,-1288.15,-83.50
45,4489,-0.939525,0.081342,-0.002954,35.00,-5565.15,-61.50
46,4589,-0.928516,0.076774,0.062101,-77.00,-5915.15,-82.50
47,4699,-0.917784,0.074246,0.121151,207.01,-3606.14,11.51
48,4799,-0.910714,0.072481,0.176123,106.01,-3348.14,139.51
49,4899,-0.906846,0.070560,0.224662,239.00,-5679.15,309.50
50,4999,-0.889990,0.067774,0.285000,-781.00,-11113.15,833.50
1,0,0.002136,0.007083,1.000488,25.99,105.84,-188.51
2,99,-0.000478,0.013965,1.001307,57.03,135.88,-125.47
3,199,-0.003433,0.019852,1.001379,216.03,285.88,-108.47
4,299,-0.003308,0.024397,0.998970,327.03,604.88,-265.47
5,399,-0.003439,0.029470,0.994797,367.04,787.89,-594.46
6,499,-0.009850,0.035447,0.993796,511.03,832.88,-957.47
7,599,-0.013798,0.041554,0.993970,360.03,730.88,-477.47
8,699,-0.011715,0.045737,0.995510,186.03,390.88,44.53
9,799,-0.005843,0.044422,1.001542,460.01,903.86,-162.49
10,899,-0.008506,0.049403,1.002624,626.04,766.89,-678.46
11,999,-0.017306,0.056181,1.002774,805.03,1370.88,-785.47
12,1109,-0.035552,0.061979,1.008761,2307.03,5444.88,-1261.47
13,1209,-0.065070,0.076026,1.001545,2121.03,4168.88,-776.47
14,1309,-0.093711,0.080642,1.006691,872.04,2633.89,-215.46
15,1419,-0.129611,0.095991,0.999932,1033.03,2610.88,-574.47
16,1519,-0.166021,0.109074,0.989775,497.05,1926.90,76.55
17,1619,-0.182725,0.131877,0.951532,-5500.97,-355.12,30.53
18,1719,-0.159514,0.122787,0.925691,-7396.96,3621.89,-2922.46
19,1829,-0.205172,0.125205,0.921213,69.05,5351.90,-1856.45
20,1929,-0.223509,0.115174,0.886297,-3622.96,20292.89,-651.46
21,2029,-0.299485,0.086141,0.828585,-559.97,16847.88,-110.47
22,2139,-0.440292,0.064355,0.742377,-1596.98,10783.87,2743.52
23,2239,-0.501878,0.050433,0.692612,-258.98,5072.87,1043.52
24,2339,-0.520096,0.039973,0.632385,-396.98,21869.87,-3750.48
25,2439,-0.567019,0.014382,0.509122,-2775.97,11951.88,4076.53
26,2539,-0.604029,0.005796,0.387209,-1815.96,6209.89,1189.54
27,2649,-0.647555,0.002361,0.276992,-2113.97,1864.88,237.53
28,2749,-0.691235,-0.006089,0.192390,335.03,-320.12,369.53
29,2849,-0.727905,-0.010085,0.113391,-23.97,-839.12,96.53
30,2949,-0.763488,-0.018663,0.053420,659.04,-3487.11,-210.46
31,3059,-0.791718,-0.024582,0.013816,923.04,-5800.11,-411.46
32,3159,-0.821336,-0.030930,-0.004247,1387.05,-5391.10,-635.45
33,3259,-0.848268,-0.037389,-0.010079,2314.05,-7232.10,-1321.45
34,3359,-0.854169,-0.047163,0.000564,422.05,-6315.10,53.55
35,3469,-0.881194,-0.051077,0.012064,101.04,-6261.11,1163.54
36,3569,-0.892501,-0.047849,0.042348,331.04,-6897.11,1189.54
37,3669,-0.900043,-0.049426,0.080887,562.04,-3689.11,405.54
38,3769,-0.897829,-0.027842,0.114049,-719.96,-7648.11,711.54
39,3879,-0.898127,-0.034764,0.159228,31.03,-1949.12,-629.47
40,3979,-0.894077,-0.038889,0.204827,174.05,-4143.10,-1247.45
41,4079,-0.873423,-0.043422,0.246754,35.03,-2103.12,-431.47
42,4189,-0.876814,-0.050131,0.280469,170.04,-1225.11,-526.46
43,4289,-0.865725,-0.057262,0.321870,1293.04,-3419.11,-1563.46
44,4389,-0.849177,-0.058342,0.359241,1465.04,-4383.11,-2231.46
45,4489,-0.835935,-0.061037,0.391940,3035.04,-6451.11,-3574.46
46,4589,-0.803714,-0.065067,0.430354,3344.04,-10300.11,-4017.46
47,4699,-0.771345,-0.066296,0.475311,-3648.96,-9922.11,4957.54
48,4799,-0.690823,-0.083013,0.547453,-974.96,20.89,-605.46
49,4899,-0.662827,-0.074390,0.572465,-798.95,-409.10,-472.45
50,4999,-0.629088,-0.109797,0.652977,-2143.96,-987.11,438.54
1,0,0.003401,0.003642,0.999244,6.04,-7.11,3.54
2,99,0.006402,0.006243,0.999480,0.07,6.92,-6.43
3,199,0.009100,0.008491,0.999589,-5.93,-3.08,7.57
4,299,0.011778,0.010274,0.999682,-0.93,4.92,4.57
5,399,0.013651,0.012009,0.999120,2.06,3.91,-9.44
6,499,0.015261,0.013136,0.999760,-1.93,8.92,-8.43
7,599,0.016739,0.014405,0.999827,-1.94,-3.09,3.56
8,699,0.017997,0.015575,0.999738,2.07,-4.08,-3.43
9,799,0.019102,0.016497,0.999699,3.07,-5.08,-1.43
10,899,0.011984,0.021546,1.000416,-430.93,-1241.08,271.57
11,999,0.029299,0.013057,1.001685,283.06,1049.91,-163.44
12,1109,0.013657,0.021937,1.001812,-114.93,-843.08,180.57
13,1209,0.034785,0.012786,1.009152,-37.94,479.91,-351.44
14,1309,0.034416,0.019564,1.008927,47.07,857.92,-162.43
15,1409,0.028938,0.020070,1.008535,87.07,504.92,-239.43
16,1509,0.021847,0.020903,1.011003,276.08,633.93,-265.42
17,1619,0.021825,0.020843,1.010776,276.06,737.91,35.56
18,1719,0.010381,0.022823,1.009044,753.06,1265.91,-1171.44
19,1819,0.023047,0.025020,1.016380,1169.07,2964.92,1046.57
20,1919,-0.001343,0.030878,1.005385,1889.07,3970.92,365.57
21,2029,-0.018779,0.038916,0.994538,-2057.93,4067.92,-1496.43
22,2129,-0.030285,0.013100,1.025894,-2458.94,7057.91,-3217.44
23,2229,-0.140590,-0.030523,1.122547,2913.06,8436.91,421.56
24,2329,-0.167937,-0.022980,1.092936,604.07,8412.92,1676.57
25,2439,-0.214400,-0.029697,1.053776,-2314.94,17621.91,187.56
26,2539,-0.246679,-0.039325,1.017287,119.06,19537.91,1623.56
27,2639,-0.412251,-0.051500,0.924619,-1376.93,20968.92,-1274.43
28,2739,-0.495272,-0.054726,0.824684,-524.94,6732.91,-1337.44
29,2849,-0.526326,-0.039488,0.710479,-3464.92,19847.93,341.58
30,2949,-0.596502,-0.041861,0.576363,-1676.94,18141.91,204.56
31,3049,-0.668676,-0.050195,0.423345,-808.93,5883.92,-159.43
32,3159,-0.709151,-0.050760,0.308568,407.07,-3020.08,29.57
33,3259,-0.743480,-0.050948,0.218625,104.07,-1741.08,-134.43
34,3359,-0.775865,-0.052939,0.141020,-8.94,-2617.09,-44.44
35,3459,-0.804967,-0.055162,0.085969,229.07,-4783.08,-44.43
36,3559,-0.833054,-0.058004,0.050931,394.06,-5425.09,62.56
37,3669,-0.856635,-0.058277,0.032941,610.07,-7803.08,-147.43
38,3769,-0.869519,-0.058582,0.036509,707.07,-8507.08,88.57
39,3869,-0.876534,-0.055894,0.061221,808.07,-4891.08,317.57
40,3969,-0.891012,-0.050917,0.077924,0.06,-226.09,191.56
41,4079,-0.906540,-0.050916,0.092670,117.08,-1825.07,594.58
42,4179,-0.908240,-0.045899,0.119139,923.06,-344.09,-475.44
43,4279,-0.921587,-0.045241,0.132281,157.08,-551.07,113.58
44,4379,-0.927090,-0.045304,0.152223,213.09,-3633.06,856.59
45,4489,-0.922814,-0.038052,0.177156,161.07,129.92,-113.43
46,4589,-0.929416,-0.035587,0.190165,-182.94,455.91,28.56
47,4689,-0.934331,-0.033583,0.202193,399.07,-373.08,-86.43
48,4789,-0.930727,-0.028547,0.215658,-501.92,522.93,100.58
49,4899,-0.936361,-0.028368,0.221756,277.07,-357.08,-24.43
50,4999,-0.933624,-0.024590,0.232726,-161.92,250.93,-31.42
1,0,-0.004728,0.016496,0.998384,-104.93,-230.08,42.57
2,99,-0.007721,0.029951,0.997083,-104.91,-102.06,-143.41
3,199,-0.001329,0.038494,0.998614,187.09,372.94,-265.41
4,299,-0.001133,0.047770,1.000923,175.09,370.94,-600.41
5,399,-0.009280,0.054465,0.997245,-54.92,-103.07,-50.42
6,499,-0.010986,0.061418,0.995841,343.07,488.92,20.57
7,599,-0.013205,0.076942,0.985418,52.09,-36.06,328.59
8,699,-0.019376,0.077759,0.984854,157.10,219.95,-124.40
9,799,-0.033502,0.075524,0.994683,4.08,-136.07,152.58
10,899,-0.050471,0.080143,0.989818,405.09,-219.06,-4543.41
11,999,-0.032613,0.093370,0.987074,634.07,703.92,2149.57
12,1109,-0.029519,0.099011,0.996680,754.09,1234.94,-297.41
13,1209,-0.029141,0.104574,1.001879,673.09,1299.94,94.59
14,1309,-0.046691,0.107967,1.003075,2058.09,3226.94,-182.41
15,1419,-0.067688,0.122551,0.999478,671.09,1589.94,562.59
16,1519,-0.083886,0.126268,0.999570,593.10,1329.95,373.60
17,1619,-0.096740,0.136661,0.997011,1052.11,2014.96,183.61
18,1719,-0.093017,0.143736,0.998956,1121.09,2145.94,72.59
19,1829,-0.121109,0.155207,0.996251,1229.08,2782.93,55.58
20,1929,-0.136674,0.166898,0.990583,1588.10,3186.95,485.60
21,2029,-0.160634,0.186869,0.977562,1876.09,4947.94,302.59
22,2139,-0.164246,0.215820,0.945034,1682.10,9986.95,-332.40
23,2239,-0.189271,0.239879,0.913833,-805.92,15299.93,-3792.42
24,2339,-0.278694,0.236343,0.836500,-2669.90,20606.95,-6667.40
25,2439,-0.412857,0.238921,0.751011,-4431.91,12696.94,-2583.41
26,2539,-0.472550,0.218536,0.667376,-5074.90,6957.95,-3674.40
27,2649,-0.515233,0.182294,0.585008,-9268.90,12677.95,-9664.40
28,2749,-0.572442,0.125780,0.496501,-2628.91,139.94,-609.41
29,2849,-0.629328,0.095889,0.425976,-150.92,1200.93,591.58
30,2949,-0.677004,0.064696,0.371486,-24.91,1127.94,-712.41
31,3059,-0.725384,0.037430,0.315429,-26.91,1242.94,-113.41
32,3159,-0.763339,0.014493,0.271368,330.08,-95.07,284.58
33,3259,-0.796846,-0.002184,0.232233,621.09,-156.06,469.59
34,3359,-0.822653,-0.017239,0.202703,232.09,-1223.06,125.59
35,3469,-0.848325,-0.028900,0.180129,53.09,-892.06,233.59
36,3569,-0.868021,-0.038994,0.160741,-5.91,-84.06,-36.41
37,3669,-0.882255,-0.050248,0.147611,-5.91,-302.06,55.59
38,3769,-0.895159,-0.057068,0.134839,222.09,-197.06,-198.41
39,3879,-0.907776,-0.062278,0.123306,126.09,-144.06,-29.41
40,3979,-0.920917,-0.067110,0.108485,151.09,-1010.06,-323.41
41,4079,-0.930805,-0.070338,0.101729,471.09,-169.06,-756.41
42,4189,-0.937709,-0.079307,0.099813,220.09,-194.06,59.59
43,4289,-0.977671,-0.090539,0.091757,-908.91,-2904.06,1065.59
44,4389,-0.958539,-0.090491,0.103532,788.08,-3948.07,477.58
45,4489,-0.971591,-0.091694,0.118155,-349.90,-2519.05,2720.60
46,4589,-0.956446,-0.082354,0.139117,465.09,-3003.06,3053.59
47,4699,-0.956080,-0.069728,0.156587,736.09,-843.06,-78.41
48,4799,-0.956629,-0.059508,0.172443,964.08,-1256.07,-948.42
49,4899,-0.937449,-0.060525,0.198390,1167.08,-5.07,-2145.42
50,4999,-0.946157,-0.052803,0.200798,1335.09,2815.94,-1966.41
1,0,-0.022379,0.014922,0.993019,454.09,960.94,171.59
2,99,-0.052021,0.027752,0.989557,549.09,1044.94,-71.41
3,199,-0.080330,0.042521,0.987236,251.09,605.94,-29.41
4,299,-0.102195,0.055240,0.984879,223.09,519.94,-90.41
5,399,-0.120744,0.066435,0.982638,469.08,948.93,-87.42
6,499,-0.140612,0.076647,0.978334,801.09,1749.94,19.59
7,609,-0.161088,0.089740,0.971326,556.11,1211.96,31.61
8,709,-0.190688,0.100448,0.963775,325.08,493.93,-182.42
9,809,-0.209549,0.103891,0.963783,333.08,525.93,-580.42
10,909,-0.215968,0.108302,0.954526,963.10,2501.95,189.60
11,1009,-0.238562,0.123861,0.941677,703.09,2725.94,-89.41
12,1119,-0.263279,0.126246,0.944268,1104.10,3235.95,1287.60
13,1219,-0.297271,0.135195,0.933085,1111.09,2096.94,-260.41
14,1319,-0.314939,0.141447,0.929989,54.10,566.95,-417.40
15,1429,-0.340870,0.151339,0.925783,131.10,920.95,56.60
16,1529,-0.343851,0.167437,0.915652,-75.91,2451.94,-229.41
17,1629,-0.361143,0.171214,0.898050,-145.91,4310.94,-790.41
18,1729,-0.405632,0.182280,0.873475,-189.91,2081.94,-238.41
19,1839,-0.409994,0.190093,0.865404,1.09,1246.94,-114.41
20,1939,-0.435510,0.187085,0.859277,41.12,6421.97,-385.38
21,2039,-0.468422,0.202271,0.833835,-3990.91,8213.94,-1835.41
22,2149,-0.508593,0.182147,0.799154,-503.90,6547.95,-5362.40
23,2249,-0.553138,0.157699,0.760904,-1501.91,8628.94,2855.59
24,2349,-0.597686,0.141861,0.707976,-4383.92,16385.93,1108.58
25,2449,-0.639414,0.122064,0.652074,-947.90,8027.95,-1690.40
26,2549,-0.659923,0.113202,0.558854,-1056.89,14543.96,-4287.39
27,2659,-0.870917,0.005236,0.536764,-5098.90,8745.95,-2763.40
28,2759,-0.875525,0.006244,0.436689,-422.91,884.94,132.59
29,2859,-0.889566,-0.002439,0.344466,-1002.90,3889.95,1227.60
30,2959,-0.900605,-0.006963,0.256975,844.10,445.95,795.60
31,3069,-0.908779,-0.007531,0.184238,312.10,-208.05,1141.60
32,3169,-0.916002,-0.010138,0.123492,60.09,-574.06,-108.41
33,3269,-0.921592,-0.010834,0.075392,130.10,-962.05,-150.40
34,3369,-0.929895,-0.013110,0.034012,283.10,-1541.05,-297.40
35,3479,-0.936001,-0.015099,0.005377,337.10,-2493.05,-392.40
36,3579,-0.941118,-0.016204,-0.014148,405.11,-1566.04,-398.39
37,3679,-0.947134,-0.018664,-0.028657,329.08,-1147.07,-241.42
38,3779,-0.955397,-0.023336,-0.040806,1402.09,-4577.06,-1056.41
39,3889,-0.958941,-0.026245,-0.035661,527.10,-1848.05,703.60
40,3989,-0.965048,-0.029176,-0.031598,100.09,-1774.06,566.59
41,4089,-0.970093,-0.030330,-0.024648,18.09,-2381.06,861.59
42,4199,-0.972312,-0.027430,-0.012991,129.09,-1653.06,552.59
43,4299,-0.974198,-0.024287,-0.001251,85.09,-782.06,237.59
44,4399,-0.980086,-0.022256,0.007831,198.10,-1119.05,358.60
45,4499,-0.982948,-0.019083,0.020421,338.10,-2901.05,878.60
46,4599,-0.973112,-0.013915,0.045643,856.10,-2801.05,518.60
47,4709,-0.972845,-0.010894,0.066514,208.11,-1105.04,-506.39
48,4809,-0.972710,-0.006661,0.080830,-515.90,-5653.05,982.60
49,4909,-0.959540,-0.003777,0.115758,2155.09,-3316.06,211.59
50,5009,-0.957922,0.012188,0.136421,403.09,-843.06,-578.41
1,0,0.004904,0.005108,0.999372,304.09,535.94,-7.41
2,99,-0.003781,0.013752,1.001183,678.11,1312.96,176.61
3,199,-0.012977,0.023700,1.002337,238.10,467.95,11.60
4,299,-0.009074,0.027597,1.006486,279.09,515.94,77.59
5,399,-0.006398,0.029773,1.005417,554.10,1100.95,-266.40
6,499,-0.017764,0.036769,1.007236,811.10,1460.95,-1003.40
7,599,-0.034457,0.045883,1.003967,412.10,801.95,-379.40
8,699,-0.018525,0.045152,1.013859,1806.10,3341.95,-242.40
9,799,-0.046566,0.059252,1.003170,2580.10,5045.95,-173.40
10,899,-0.098178,0.084366,0.988499,1904.10,3732.95,-323.40
11,999,-0.129633,0.099341,0.980148,737.11,1499.96,-128.39
12,1109,-0.138133,0.104800,0.981144,978.09,2381.94,-318.41
13,1209,-0.172146,0.124217,0.970912,919.12,2539.97,77.62
14,1309,-0.197560,0.134972,0.966719,428.10,1517.95,240.60
15,1419,-0.210501,0.145158,0.955227,1332.09,3684.94,637.59
16,1519,-0.222911,0.167310,0.910467,-3677.91,5079.94,-195.41
17,1619,-0.230310,0.153034,0.924258,-7327.89,853.96,-6847.39
18,1719,-0.248153,0.163861,0.815589,2149.09,10416.94,-1669.41
19,1829,-0.357033,0.111248,0.861062,-2463.89,13579.96,-3088.39
20,1929,-0.404280,0.088536,0.813215,-2139.89,14839.96,414.61
21,2029,-0.495601,0.084043,0.719426,-4738.91,19123.94,6399.59
22,2139,-0.548962,0.088812,0.625149,-2515.91,15200.94,-2703.41
23,2239,-0.656592,0.045589,0.538934,-1120.89,24822.96,3658.61
24,2339,-0.716199,0.031792,0.372231,-1177.89,8865.96,295.61
25,2439,-0.750368,0.022884,0.260654,-25.90,-4015.05,1163.60
26,2539,-0.786131,0.021886,0.184839,2175.11,1125.96,1612.61
27,2649,-0.804573,0.021971,0.088315,170.10,-364.05,-758.40
28,2749,-0.830026,0.018254,0.025899,464.11,-2044.04,-324.39
29,2849,-0.849263,0.013446,-0.027411,260.10,-1587.05,-472.40
30,2949,-0.863601,0.008480,-0.068440,271.09,-1832.06,-488.41
31,3059,-0.879193,0.001292,-0.100146,264.09,-1270.06,-75.41
32,3159,-0.891257,-0.002968,-0.125120,194.09,-1291.06,12.59
33,3259,-0.901145,-0.006772,-0.142007,385.09,-2654.06,96.59
34,3359,-0.911032,-0.011067,-0.150191,151.12,-2453.03,-19.38
35,3469,-0.922843,-0.014315,-0.154511,169.08,-3255.07,10.58
36,3569,-0.933614,-0.016161,-0.150108,172.08,-4496.07,-194.42
37,3669,-0.933926,-0.026756,-0.126974,183.10,-6028.05,596.60
38,3769,-0.933440,-0.027065,-0.097001,-283.92,-785.07,-109.42
39,3879,-0.939638,-0.029873,-0.079490,1170.08,-741.07,79.58
40,3979,-0.947725,-0.029037,-0.064587,-134.91,-1256.06,120.59
41,4079,-0.929129,-0.030799,-0.041482,576.09,-1200.06,662.59
42,4189,-0.934582,-0.028377,-0.023107,224.07,-229.08,-16.43
43,4289,-0.943519,-0.030549,-0.010564,-282.92,-10.07,105.58
44,4389,-0.948077,-0.030875,0.003576,273.08,-332.07,19.58
45,4489,-0.952811,-0.032434,0.014992,174.08,-153.07,18.58
46,4589,-0.955828,-0.032001,0.025940,142.09,-8.06,39.59
47,4699,-0.959143,-0.031121,0.034092,37.07,76.92,15.57
48,4799,-0.962913,-0.028523,0.040124,600.09,-172.06,-74.41
49,4899,-0.965953,-0.027194,0.045270,-363.91,430.94,83.59
50,4999,-0.967969,-0.025917,0.050578,-59.91,119.94,5.59
1,0,0.006076,0.004009,1.001277,182.10,372.95,68.60
2,99,0.006297,0.008863,1.000202,301.10,571.95,12.60
3,199,0.006045,0.012641,1.001302,87.10,192.95,91.60
4,299,0.008101,0.015011,1.001395,532.09,958.94,-28.41
5,399,0.006663,0.017830,1.001180,833.08,1583.93,120.58
6,499,-0.000126,0.024767,0.999478,944.09,2075.94,-168.41
7,599,-0.016260,0.034052,0.999186,670.10,988.95,-306.40
8,699,-0.028802,0.041138,1.002983,256.10,369.95,-49.40
9,799,-0.031205,0.049999,0.996580,233.09,302.94,469.59
10,899,-0.058754,0.061376,0.997271,362.10,773.95,207.60
11,999,-0.084405,0.068465,0.994984,1059.10,2802.95,684.60
12,1109,-0.081983,0.068046,1.007725,878.09,2816.94,-606.41
13,1209,-0.089830,0.077393,0.982996,1817.10,4739.95,-106.40
14,1309,-0.124021,0.087848,0.963074,-2914.91,4787.94,-1698.41
15,1419,-0.120582,0.088476,0.914812,-5165.90,4863.95,-3235.40
16,1519,-0.173195,0.085475,0.935935,416.10,5027.95,-1399.40
17,1619,-0.212863,0.060202,0.956782,-3297.91,13214.94,-2234.41
18,1719,-0.297007,0.039800,0.918784,-2165.91,14616.94,1062.59
19,1829,-0.367193,0.024911,0.872166,-1288.90,15904.95,2494.60
20,1929,-0.622097,0.024854,0.752176,-2178.90,13662.95,352.60
21,2029,-0.648610,0.021345,0.699403,362.09,3618.94,-586.41
22,2139,-0.688980,0.016787,0.615875,-149.90,22759.95,-1739.40
23,2239,-0.740416,0.000205,0.455959,-2398.91,16195.94,-422.41
24,2339,-0.771410,-0.013852,0.330706,-465.90,-3358.05,126.60
25,2439,-0.794514,-0.016445,0.253190,723.10,-4477.05,134.60
26,2539,-0.818968,-0.022878,0.188876,451.09,-2209.06,31.59
27,2649,-0.844771,-0.027760,0.134905,131.10,-2756.05,47.60
28,2749,-0.865001,-0.032203,0.096592,206.09,-2956.06,113.59
29,2849,-0.883533,-0.034936,0.070599,234.09,-3155.06,20.59
30,2949,-0.898608,-0.037278,0.054181,189.07,-3174.08,-62.43
31,3059,-0.908858,-0.042051,0.052659,203.09,-3486.06,149.59
32,3159,-0.920043,-0.040597,0.054368,242.07,-2086.08,144.57
33,3259,-0.930319,-0.041998,0.057890,99.08,-2436.07,326.58
34,3359,-0.939018,-0.042877,0.066321,362.07,-3661.08,431.57
35,3469,-0.948865,-0.040201,0.077919,408.07,-6701.08,713.57
36,3569,-0.933284,-0.035985,0.100614,567.07,-7401.08,1428.57
37,3669,-0.929691,-0.036595,0.141345,-650.94,652.91,222.56
38,3769,-0.930464,-0.031949,0.165163,249.06,-754.09,-1.44
39,3879,-0.934563,-0.029337,0.185006,-669.93,88.92,242.57
40,3979,-0.930759,-0.025725,0.207037,512.08,-831.07,20.58
41,4079,-0.942156,-0.015258,0.210107,495.08,-989.07,-133.42
42,4189,-0.940564,-0.021631,0.232144,310.09,-451.06,-217.41
43,4289,-0.933718,-0.021409,0.251627,594.07,631.92,-144.43
44,4389,-0.933172,-0.018950,0.262712,18.08,698.93,1.58
45,4489,-0.934026,-0.018507,0.270523,75.07,276.92,-10.43
46,4589,-0.933050,-0.016428,0.275404,-23.92,-94.07,81.58
47,4699,-0.930645,-0.013526,0.280707,-125.93,374.92,16.57
48,4799,-0.932446,-0.012378,0.286752,178.07,85.92,-76.43
49,4899,-0.932732,-0.010943,0.287954,346.07,497.92,-83.43
50,4999,-0.932975,-0.010603,0.290294,373.07,171.92,-97.43
1,0,0.006680,0.002489,1.000617,66.07,107.92,-59.43
2,99,0.013804,0.004806,0.999714,89.09,174.94,251.59
3,199,0.018358,0.009705,0.997793,134.08,246.93,92.58
4,299,0.017579,0.008083,1.000701,106.08,73.93,-25.42
5,399,0.012705,0.005295,1.004930,393.09,124.94,199.59
6,499,0.010649,0.011549,1.002501,95.08,37.93,-77.42
7,599,0.011849,0.015565,1.001553,330.07,386.92,512.57
8,699,0.040335,0.007663,0.991720,-180.92,311.93,-185.42
9,799,0.037193,0.020703,0.977686,4383.09,8114.94,-829.41
10,899,-0.000506,0.030853,0.982530,2618.08,5534.93,-569.42
11,999,-0.029108,0.042685,0.975550,2844.08,6408.93,-498.42
12,1109,-0.062722,0.082588,0.927504,-215.92,4800.93,-755.42
13,1209,-0.097372,0.100594,0.914020,-2994.92,4500.93,-3555.42
14,1309,-0.203327,0.052014,1.018135,-6547.93,4598.92,-6069.43
15,1419,-0.228459,0.071164,0.975456,-4234.91,14465.94,660.59
16,1519,-0.300706,0.058620,0.916987,-1787.91,18171.95,229.59
17,1619,-0.346918,0.060721,0.830722,-4032.92,22920.93,3167.58
18,1719,-0.411907,0.044269,0.749339,-1260.92,4992.93,-2315.42
19,1829,-0.505727,0.016992,0.666670,-1160.91,19641.95,-1698.41
20,1929,-0.593458,0.002485,0.510103,-1441.91,17793.94,-464.41
21,2029,-0.659149,-0.014222,0.365449,-578.92,-366.07,-283.42
22,2139,-0.698616,-0.022765,0.272907,326.08,-1791.07,169.58
23,2239,-0.735332,-0.028342,0.191957,32.07,-471.08,-26.43
24,2339,-0.773773,-0.034475,0.121318,82.06,-1921.09,63.56
25,2439,-0.804524,-0.038918,0.068930,267.09,-4291.06,197.59
26,2539,-0.826837,-0.040809,0.036924,285.06,-4242.09,167.56
27,2649,-0.848018,-0.044613,0.016457,233.07,-2638.08,113.57
28,2749,-0.868275,-0.046566,0.002575,208.05,-3852.10,67.55
29,2849,-0.884193,-0.051210,0.005205,367.04,-4064.11,-261.46
30,2949,-0.899738,-0.051276,0.010003,385.04,-3936.11,53.54
31,3059,-0.910589,-0.052851,0.027174,313.05,-5607.10,127.55
32,3159,-0.915656,-0.048350,0.051291,78.05,-720.10,267.55
33,3259,-0.929301,-0.051353,0.065857,168.05,-1500.10,438.55
34,3359,-0.942419,-0.050848,0.079703,455.04,-5384.11,1450.54
35,3469,-0.883751,-0.042838,0.119488,-712.96,-3507.11,-165.46
36,3569,-0.901084,-0.037769,0.142593,-22.96,1614.89,42.54
37,3669,-0.902450,-0.033589,0.167982,167.03,-419.12,-34.47
38,3769,-0.908756,-0.030457,0.187658,17.03,28.88,-5.47
39,3879,-0.912890,-0.028070,0.206086,277.03,-225.12,-73.47
40,3979,-0.917502,-0.026608,0.219808,-18.96,218.89,49.54
41,4079,-0.918657,-0.024834,0.233377,34.05,20.90,-14.45
42,4189,-0.920517,-0.022850,0.244160,-5.95,-0.10,-6.45
43,4289,-0.923198,-0.020743,0.252006,-18.96,-49.11,7.54
44,4389,-0.924048,-0.021534,0.259628,84.05,-12.10,-50.45
45,4489,-0.925320,-0.020796,0.265997,0.05,21.90,-0.45
46,4589,-0.926914,-0.020150,0.272180,28.04,70.89,2.54
47,4699,-0.927719,-0.019126,0.276830,-4.97,0.88,-0.47
48,4799,-0.928386,-0.018182,0.279850,-3.97,-60.12,18.53
49,4899,-0.928677,-0.017489,0.283332,-3.95,-12.10,6.55
50,4999,-0.927918,-0.017394,0.286951,-5.96,-0.11,-6.46
1,0,-0.021940,0.015745,1.000214,-24.94,-115.09,38.56
2,99,-0.045222,0.035464,0.995819,283.06,647.91,-114.44
3,199,-0.067503,0.051566,0.994188,166.04,258.89,-27.46
4,299,-0.084701,0.065399,0.991338,141.05,320.90,-21.45
5,399,-0.100419,0.078384,0.989812,188.05,428.90,-214.45
6,499,-0.113266,0.089623,0.989265,361.04,642.89,-194.46
7,599,-0.128745,0.098113,0.993159,605.05,1179.90,-302.45
8,699,-0.140035,0.108480,0.994491,489.06,1140.91,-215.44
9,799,-0.148917,0.120295,0.988720,742.05,1145.90,-441.45
10,899,-0.148355,0.122409,0.985628,1058.04,1770.89,-898.46
11,999,-0.154268,0.129662,0.977817,2189.05,5015.90,-439.45
12,1109,-0.203697,0.158129,0.964000,593.04,2908.89,2033.54
13,1209,-0.208175,0.170553,0.947166,-583.95,5939.90,-1376.45
14,1309,-0.235291,0.179044,0.927876,-5728.96,5648.89,-4964.46
15,1419,-0.428225,0.036536,1.097341,-2549.95,10734.90,-692.45
16,1519,-0.416419,0.046545,1.042030,-3760.94,13459.91,-1854.44
17,1619,-0.477667,0.037803,0.970351,-5178.95,26727.90,1417.55
18,1719,-0.608114,0.026950,0.778962,-4197.93,17068.92,-1939.43
19,1829,-0.659962,0.014373,0.666855,1089.05,10325.90,-482.45
20,1929,-0.702678,0.010310,0.516229,-320.97,15990.88,-1184.47
21,2029,-0.748178,-0.002645,0.372267,-356.94,1951.91,-143.44
22,2139,-0.778723,-0.010838,0.272458,649.05,-3637.10,548.55
23,2239,-0.805291,-0.017216,0.193717,110.04,-3427.11,402.54
24,2339,-0.828662,-0.021228,0.131274,56.02,-1746.13,169.52
25,2439,-0.851384,-0.025956,0.080577,48.02,-3135.13,237.52
26,2539,-0.871429,-0.025306,0.043399,274.02,-5229.13,573.52
27,2649,-0.893340,-0.025816,0.026281,405.00,-8180.15,866.50
28,2749,-0.916046,-0.027110,0.024878,110.01,-11659.14,1092.51
29,2849,-0.878730,-0.016948,0.085411,-612.98,-420.13,-312.48
30,2949,-0.915255,-0.010692,0.093760,0.01,-241.14,-76.49
31,3059,-0.915577,-0.007882,0.117391,-71.99,1143.86,-50.49
32,3159,-0.923852,-0.005585,0.131069,-73.00,375.85,21.50
33,3259,-0.930280,-0.003651,0.143447,-110.97,284.88,7.53
34,3359,-0.934958,-0.002593,0.154150,-14.98,59.87,8.52
35,3469,-0.939025,-0.001199,0.162718,4.03,44.88,-10.47
36,3569,-0.942519,-0.000234,0.169872,-68.97,75.88,4.53
37,3669,-0.944994,0.000659,0.175952,1.03,31.88,-7.47
38,3769,-0.949057,-0.004148,0.178338,175.02,107.87,-217.48
39,3879,-0.953207,-0.001660,0.183112,-765.98,436.87,96.52
40,3979,-0.953988,-0.000425,0.187024,128.01,-9.14,0.51
41,4079,-0.954248,0.000442,0.190806,111.02,23.87,-28.48
42,4189,-0.954269,0.000446,0.194790,17.01,52.86,-22.49
43,4289,-0.954414,0.000633,0.197426,-9.98,-13.13,3.52
44,4389,-0.956845,0.004619,0.198257,-195.98,-121.13,31.52
45,4489,-0.960467,0.012164,0.191785,1113.03,52.88,-247.47
46,4589,-0.961477,0.011747,0.192876,393.03,16.88,-107.47
47,4699,-0.958362,0.011649,0.196770,74.01,-284.14,-5.49
48,4799,-0.959962,0.010155,0.198559,8.02,31.87,-5.48
49,4899,-0.962531,0.007403,0.200630,424.03,17.88,-116.47
50,4999,-0.962059,0.008286,0.203800,287.03,-25.12,-50.47
1,0,0.004902,0.010270,0.999591,7.03,58.88,147.53
2,99,0.010772,0.016802,0.999372,46.04,117.89,9.54
3,199,0.017903,0.023142,1.003361,13.03,225.88,119.53
4,299,0.022976,0.029520,1.000599,116.02,79.87,-88.48
5,399,0.024944,0.036057,1.005722,157.03,270.88,206.53
6,499,0.016986,0.044727,1.003118,-28.97,-93.12,500.53
7,599,0.014341,0.045285,1.002736,117.04,186.89,-483.46
8,699,0.025607,0.048452,1.005671,-48.96,42.89,92.54
9,799,0.024635,0.051545,1.008697,403.03,722.88,-899.47
10,899,0.027875,0.060840,0.998360,670.05,1203.90,-824.45
11,999,0.033210,0.068594,1.006016,3126.03,4778.88,-376.47
12,1109,0.004730,0.089321,1.000401,1963.01,3481.86,-971.49
13,1209,-0.019404,0.095531,1.000153,1638.04,3086.89,-666.46
14,1309,-0.044605,0.107658,0.994319,1592.02,3735.87,-302.48
15,1419,-0.071300,0.122086,0.988025,1189.02,2624.87,106.52
16,1519,-0.100270,0.140392,0.983901,1119.05,2177.90,141.55
17,1619,-0.130645,0.153517,0.978748,1050.04,2060.89,-320.46
18,1719,-0.134802,0.159802,0.974954,2451.03,4859.88,583.53
19,1829,-0.172924,0.189462,0.948713,2034.04,5810.89,1303.54
20,1929,-0.195861,0.207732,0.932926,-9.96,3692.89,-371.46
21,2029,-0.213527,0.215370,0.926960,-3081.96,8816.89,-2274.46
22,2139,-0.291403,0.207141,0.878218,-4980.97,16401.88,-4828.47
23,2239,-0.342070,0.208404,0.803004,-3185.96,9716.89,-5195.46
24,2339,-0.433660,0.181628,0.728654,-5410.97,12532.88,1330.53
25,2439,-0.492029,0.158080,0.678676,-2574.97,5299.88,-1754.47
26,2539,-0.553252,0.129880,0.614204,-1327.96,8774.89,-3592.46
27,2649,-0.596501,0.108144,0.530509,-1504.94,12778.91,-2687.44
28,2749,-0.659100,0.072218,0.433038,-3582.96,11234.89,-3183.46
29,2849,-0.719011,0.035144,0.331510,-465.97,888.88,-201.47
30,2949,-0.757612,0.012842,0.259384,668.04,-3782.11,932.54
31,3059,-0.786816,-0.002673,0.210547,-46.96,-2505.11,598.54
32,3159,-0.813782,-0.016868,0.171708,-86.98,-1517.13,350.52
33,3259,-0.839706,-0.028787,0.139885,31.02,-1649.13,422.52
34,3359,-0.862876,-0.037874,0.115821,232.04,-2270.11,581.54
35,3469,-0.879037,-0.042578,0.101335,240.02,-2155.13,577.52
36,3569,-0.890961,-0.045751,0.096493,247.03,-2160.12,536.53
37,3669,-0.903916,-0.047863,0.093036,180.04,-2492.11,655.54
38,3769,-0.910845,-0.044586,0.098521,184.03,-1131.12,236.53
39,3879,-0.915178,-0.043997,0.102267,-132.97,157.88,-585.47
40,3979,-0.923878,-0.047324,0.103053,-378.96,-138.11,-344.46
41,4079,-0.933489,-0.048980,0.103226,395.03,-116.12,-5.47
42,4189,-0.939809,-0.049766,0.107878,228.02,-1244.13,346.52
43,4289,-0.945254,-0.047338,0.111924,370.02,-798.13,84.52
44,4389,-0.942082,-0.046520,0.121057,21.03,-601.12,290.53
45,4489,-0.950775,-0.048370,0.124682,206.03,-1985.12,232.53
46,4589,-0.944980,-0.052634,0.144884,690.04,-2140.11,168.54
47,4699,-0.946812,-0.050161,0.153962,202.02,-1219.13,398.52
48,4799,-0.950511,-0.049634,0.165781,15.03,-1823.12,704.53
49,4899,-0.949333,-0.043217,0.179781,524.03,-729.12,198.53
50,4999,-0.948003,-0.038311,0.192158,90.04,417.89,-48.46
1,0,0.007319,0.006370,1.000379,20.03,8.88,-12.47
2,99,0.014145,0.011546,1.002715,11.03,64.88,340.53
3,199,0.018994,0.015379,1.006166,45.03,140.88,237.53
4,299,0.020479,0.019075,1.009410,114.02,178.87,249.52
5,399,0.021833,0.023426,1.009659,116.03,287.88,523.53
6,499,0.023168,0.027308,1.005641,352.04,460.89,585.54
7,599,0.004325,0.033244,1.015849,956.04,610.89,797.54
8,699,0.044760,0.042354,1.005666,-503.96,76.89,2165.54
9,799,0.048662,0.039643,1.011238,516.05,639.90,-2405.45
10,899,0.058624,0.039206,1.013117,3165.04,5193.89,-1372.46
11,999,0.041732,0.055515,1.003600,4979.03,9456.88,-432.47
12,1109,0.014392,0.070257,0.991500,3524.03,6424.88,-1916.47
13,1209,-0.028586,0.093884,0.976107,2254.04,5388.89,60.54
14,1309,-0.071196,0.124349,0.953098,-221.96,3327.89,-2365.46
15,1419,-0.111224,0.136951,0.925887,-2811.97,4037.88,-2357.47
16,1519,-0.167256,0.116845,0.931395,-4357.96,2838.89,-4040.46
17,1619,-0.205912,0.125226,0.911834,-2143.95,8228.90,-1668.45
18,1719,-0.231188,0.124934,0.884386,-2974.96,12300.89,-1027.46
19,1829,-0.287372,0.107913,0.854225,-3707.96,17379.89,1700.54
20,1929,-0.520724,0.094672,0.745348,-3304.97,27228.88,-2831.47
21,2029,-0.600695,0.072248,0.645058,-1704.96,5534.89,-1759.46
22,2139,-0.660303,0.052839,0.562136,594.03,1338.88,-134.47
23,2239,-0.707802,0.035994,0.494308,506.04,-2543.11,454.54
24,2339,-0.748597,0.023910,0.442989,313.05,-3117.10,646.55
25,2439,-0.775545,0.011752,0.409916,176.05,-3470.10,1107.55
26,2539,-0.806398,0.006838,0.381839,423.04,-4503.11,1443.54
27,2649,-0.815888,0.017273,0.384562,22.05,-5051.10,1435.55
28,2749,-0.849643,0.017811,0.365233,-229.95,997.90,53.55
29,2849,-0.858194,0.017042,0.361840,48.05,212.90,-58.45
30,2949,-0.866780,0.016058,0.357949,5.04,-4.11,20.54
31,3059,-0.875324,0.015387,0.353781,10.04,12.89,6.54
32,3159,-0.883319,0.014615,0.349671,4.04,51.89,7.54
33,3259,-0.890389,0.014380,0.346305,-2.96,151.89,25.54
34,3359,-0.897314,0.013851,0.343041,-106.96,-528.11,23.54
35,3469,-0.903566,0.011716,0.335800,507.04,-1360.11,48.54
36,3569,-0.911591,0.010415,0.337133,-178.96,-2036.11,195.54
37,3669,-0.920005,0.012549,0.336985,-163.95,-2599.10,12.55
38,3769,-0.903096,0.012679,0.357751,-1048.95,-2073.10,356.55
39,3879,-0.895243,0.011709,0.368005,262.03,1660.88,-33.47
40,3979,-0.905706,0.010061,0.368646,-25.95,755.90,-9.45
41,4079,-0.901691,0.008714,0.376112,-178.95,201.90,103.55
42,4189,-0.902801,0.008833,0.378247,8.04,671.89,-23.46
43,4289,-0.903378,0.009264,0.380043,2.05,279.90,-13.45
44,4389,-0.903795,0.008972,0.380599,10.06,385.91,-40.44
45,4489,-0.897228,0.006269,0.385009,444.04,2162.89,-301.46
46,4589,-0.902486,0.008257,0.373834,515.06,296.91,-125.44
47,4699,-0.906168,0.009268,0.369811,76.05,255.90,-33.45
48,4799,-0.904702,0.008627,0.367855,-34.95,96.90,25.55
49,4899,-0.908473,0.008961,0.363923,76.05,287.90,-41.45
50,4999,-0.911093,0.008805,0.360452,29.03,9.88,0.53
1,0,0.008620,0.006480,1.000086,3.05,-12.10,100.55
2,99,0.017502,0.011329,1.000141,-2.96,67.89,-2.46
3,199,0.023131,0.015322,0.999638,-0.95,10.90,85.55
4,299,0.030551,0.018589,0.998424,113.06,158.91,113.56
5,399,0.033215,0.021054,1.001035,-18.94,109.91,176.56
6,499,0.037347,0.023405,1.003713,113.05,285.90,134.55
7,599,0.022201,0.026503,1.006300,146.07,206.92,606.57
8,699,0.058491,0.034996,1.005130,136.06,-116.09,1072.56
9,799,0.047040,0.040804,1.005399,54.07,287.92,-1434.43
10,899,0.056771,0.038289,1.001196,59.06,362.91,-1046.44
11,999,0.057956,0.039356,1.000481,307.07,615.92,-833.43
12,1109,0.056839,0.036967,0.997382,86.07,513.92,-1483.43
13,1209,0.057592,0.025707,1.005002,2556.06,4419.91,-1739.44
14,1309,0.044610,0.032360,1.012010,3893.07,6769.92,-1766.43
15,1419,-0.000739,0.054165,0.998961,2091.07,4410.92,-566.43
16,1519,-0.051298,0.072058,0.972286,-323.94,3586.91,-394.44
17,1619,-0.088321,0.080199,0.969553,-2684.92,3982.93,-1403.42
18,1719,-0.110471,0.087687,0.950000,-5054.93,7512.92,-2527.43
19,1829,-0.203951,0.064425,0.990124,-2202.92,2854.93,-2392.42
20,1929,-0.250120,0.033922,1.017217,-4279.93,18339.92,-811.43
21,2029,-0.332577,0.020428,0.942504,-4627.93,24996.92,3411.57
22,2139,-0.452525,0.002640,0.833221,-3619.94,1664.91,345.56
23,2239,-0.493873,-0.001200,0.793011,1369.07,3368.92,-442.43
24,2339,-0.556392,0.003539,0.715289,664.08,8225.93,-697.42
25,2439,-0.609589,-0.002304,0.626136,-336.94,10366.91,-1394.44
26,2539,-0.675406,-0.014704,0.541036,-441.93,7064.92,-579.43
27,2649,-0.730032,-0.022589,0.455792,306.06,-1387.09,214.56
28,2749,-0.761357,-0.026490,0.400602,413.08,-1313.07,185.58
29,2849,-0.792250,-0.031819,0.349405,-314.93,2102.92,-287.43
30,2949,-0.821311,-0.036331,0.301366,43.07,-273.08,64.57
31,3059,-0.844108,-0.039397,0.262162,34.09,589.94,-69.41
32,3159,-0.866104,-0.043816,0.227465,80.07,-240.08,32.57
33,3259,-0.881450,-0.046730,0.200865,45.07,-167.08,72.57
34,3359,-0.898376,-0.048749,0.175546,77.07,-674.08,165.57
35,3469,-0.913092,-0.050319,0.156936,182.07,-1894.08,322.57
36,3569,-0.920200,-0.052221,0.152507,300.07,-2648.08,420.57
37,3669,-0.930800,-0.052427,0.148064,109.08,-3074.07,504.58
38,3769,-0.940909,-0.051266,0.148573,183.09,-3825.06,584.59
39,3879,-0.945840,-0.047862,0.159790,344.07,-5920.08,943.57
40,3979,-0.869885,-0.042643,0.211366,-1289.92,-2110.07,-163.42
41,4079,-0.880526,-0.036633,0.227336,-174.93,-308.08,181.57
42,4189,-0.885158,-0.033996,0.244464,89.07,160.92,23.57
43,4289,-0.891017,-0.031278,0.257777,6.08,40.93,15.58
44,4389,-0.895411,-0.028693,0.269532,-2.92,10.93,23.58
45,4489,-0.901930,-0.025544,0.276998,-150.94,-584.09,-124.44
46,4589,-0.890882,-0.026439,0.298175,-361.94,-1620.09,-820.44
47,4699,-0.896706,-0.019453,0.306928,556.08,1300.93,-70.42
48,4799,-0.898692,-0.020730,0.315760,128.06,-755.09,-244.44
49,4899,-0.899792,-0.023792,0.324165,704.08,82.93,-298.42
50,4999,-0.897762,-0.023264,0.331382,-42.92,-497.07,-139.42
1,0,-0.017088,0.011223,0.998017,-83.92,-268.07,-102.42
2,99,-0.028865,0.020506,0.998694,-64.93,-168.08,-63.43
3,199,-0.037429,0.028306,0.998427,123.10,222.95,-42.40
4,299,-0.047822,0.036144,0.997962,51.08,190.93,45.58
5,399,-0.054312,0.042806,0.997952,103.08,258.93,120.58
6,499,-0.060011,0.048707,0.998034,191.09,453.94,89.59
7,599,-0.069306,0.054583,0.997866,149.08,335.93,19.58
8,699,-0.072829,0.058113,0.996753,-3.91,124.94,350.59
9,799,-0.079359,0.063347,0.997162,5.06,201.91,262.56
10,899,-0.085293,0.066295,0.998717,257.08,504.93,-334.42
11,999,-0.082921,0.075850,0.995353,-55.91,-345.06,120.59
12,1109,-0.088212,0.075677,0.995660,1021.07,2477.92,-282.43
13,1209,-0.101094,0.081189,0.995592,1201.09,2031.94,-756.41
14,1309,-0.109499,0.088657,0.969735,1608.10,4703.95,-480.40
15,1419,-0.134203,0.100040,0.940871,-3340.91,5903.94,-2161.41
16,1519,-0.126894,0.091881,0.940543,-6138.93,7076.92,-3576.43
17,1619,-0.161257,0.104245,0.911902,-3035.91,5323.94,-2724.41
18,1719,-0.210662,0.087197,0.907021,-2861.91,11817.94,-2923.41
19,1829,-0.275984,0.057142,0.877804,-2106.93,22854.92,1924.57
20,1929,-0.404769,0.082517,0.677556,-4261.93,20983.92,6696.57
21,2029,-0.496437,0.058603,0.601259,-121.91,5195.94,-686.41
22,2139,-0.567269,0.043860,0.536480,399.09,2424.94,-43.41
23,2239,-0.627330,0.031476,0.478031,76.10,779.95,-216.40
24,2339,-0.682099,0.019228,0.425511,-395.91,180.94,73.59
25,2439,-0.726803,0.008689,0.382553,63.09,-692.06,142.59
26,2539,-0.764673,0.000097,0.348273,232.09,-957.06,99.59
27,2649,-0.797119,-0.006621,0.321332,251.09,-1415.06,202.59
28,2749,-0.822848,-0.012019,0.302351,235.09,-2944.06,381.59
29,2849,-0.846642,-0.016132,0.289787,445.08,-5339.07,727.58
30,2949,-0.805910,-0.007890,0.305933,-2044.91,-1665.06,-447.41
31,3059,-0.819317,-0.011981,0.314421,-647.91,-744.06,107.59
32,3159,-0.831884,-0.014562,0.322386,-83.91,-405.06,-101.41
33,3259,-0.844287,-0.016260,0.326446,171.09,-200.06,-122.41
34,3359,-0.853860,-0.018345,0.332479,92.10,135.95,-6.40
35,3469,-0.862161,-0.020355,0.336637,7.09,-80.06,-34.41
36,3569,-0.869547,-0.021990,0.340006,-1.91,33.94,7.59
37,3669,-0.876283,-0.022904,0.342357,76.09,-78.06,-52.41
38,3769,-0.881459,-0.023334,0.344703,-3.92,53.93,28.58
39,3879,-0.887397,-0.024815,0.346404,0.09,-90.06,-49.41
40,3979,-0.892205,-0.025324,0.346935,-9.91,-325.06,-175.41
41,4079,-0.893254,-0.026397,0.351286,91.09,-852.06,-439.41
42,4189,-0.885209,-0.028042,0.361467,144.07,-218.08,-162.43
43,4289,-0.889009,-0.027499,0.361862,37.10,-691.05,-295.40
44,4389,-0.889383,-0.029600,0.366886,5.10,252.95,116.60
45,4489,-0.891166,-0.031680,0.369544,109.09,-408.06,-216.41
46,4589,-0.891289,-0.034400,0.373654,41.10,619.95,241.60
47,4699,-0.896173,-0.034368,0.371306,-74.90,-713.05,-252.40
48,4799,-0.894649,-0.036611,0.375993,30.08,166.93,66.58
49,4899,-0.897857,-0.036284,0.374777,-26.90,-440.05,-142.40
50,4999,-0.898423,-0.035786,0.374165,365.10,-293.05,-280.40
1,0,0.000253,0.002782,0.999610,7.09,31.94,-51.41
2,99,0.002812,0.004708,0.999518,19.10,75.95,-34.40
3,199,0.003449,0.006747,0.999768,-7.90,2.95,-50.40
4,299,0.004412,0.008994,1.000128,94.12,202.97,-80.38
5,399,0.002594,0.011526,1.000470,59.11,41.96,-2.39
6,499,0.003557,0.013055,1.000578,9.10,72.95,11.60
7,599,0.003551,0.014941,1.001036,44.09,99.94,2.59
8,699,0.001624,0.017002,1.001754,7.10,5.95,-39.40
9,799,0.003282,0.017838,1.002896,144.11,237.96,37.61
10,899,0.001486,0.018513,1.004032,249.11,477.96,47.61
11,999,0.003440,0.019012,1.005857,493.10,1160.95,-11.40
12,1109,-0.018210,0.028318,1.001495,165.10,440.95,588.60
13,1209,0.002829,0.025369,1.002548,348.10,507.95,-276.40
14,1309,-0.001718,0.021783,1.003278,2286.10,5135.95,-370.40
15,1419,-0.037041,0.044460,0.991923,776.09,2454.94,1217.59
16,1519,-0.064520,0.052201,0.986684,1313.09,2837.94,15.59
17,1619,-0.084509,0.064658,0.980620,830.09,2005.94,-157.41
18,1719,-0.089853,0.071401,0.979365,1081.09,2788.94,-353.41
19,1829,-0.120085,0.096780,0.935544,-348.88,3424.97,149.62
20,1929,-0.138697,0.095318,0.951433,-5798.90,2426.95,-1528.40
21,2029,-0.304278,0.021546,1.117365,2617.10,7325.95,623.60
22,2139,-0.299252,0.047226,1.063501,-1718.89,3098.96,531.61
23,2239,-0.312009,0.031572,1.035642,-956.91,8449.94,-2477.41
24,2339,-0.360389,0.026487,0.992571,-338.91,10890.94,334.59
25,2439,-0.385289,0.024546,0.945158,-1561.90,10073.95,2262.60
26,2539,-0.428298,0.022895,0.880833,-2388.90,17401.95,3353.60
27,2649,-0.513288,0.012575,0.794278,-3316.91,4946.94,2438.59
28,2749,-0.566028,0.003968,0.733835,484.09,488.94,-202.41
29,2849,-0.569714,0.002932,0.687658,348.09,14427.94,-2445.41
30,2949,-0.779682,-0.007689,0.523384,-3009.91,20409.94,-2411.41
31,3059,-0.822328,-0.025433,0.424053,334.10,-3915.05,1036.60
32,3159,-0.854713,-0.032203,0.374685,294.10,-6813.05,1792.60
33,3259,-0.865504,-0.027721,0.324008,66.11,1173.96,-352.39
34,3359,-0.888942,-0.031786,0.270201,-147.92,121.93,-13.42
35,3469,-0.902381,-0.033519,0.231790,238.10,-1661.05,430.60
36,3569,-0.915141,-0.033436,0.200935,-41.90,-1562.05,444.60
37,3669,-0.927250,-0.032157,0.176595,-88.90,-2033.05,536.60
38,3769,-0.939685,-0.031564,0.159787,-487.90,-3463.05,820.60
39,3879,-0.944323,-0.030657,0.157109,-13.91,-4603.06,1040.59
40,3979,-0.944639,-0.025254,0.165636,362.10,-4136.05,828.60
41,4079,-0.936760,-0.017164,0.180062,62.10,-3560.05,719.60
42,4189,-0.943777,-0.013033,0.190035,67.11,352.96,20.61
43,4289,-0.944193,-0.007802,0.202394,12.11,-454.04,-115.39
44,4389,-0.943614,-0.002439,0.213119,47.09,-47.06,71.59
45,4489,-0.944348,0.000746,0.222565,-111.90,73.95,107.60
46,4589,-0.945173,0.013688,0.223105,185.10,-905.05,-210.40
47,4699,-0.949683,0.017512,0.225486,13.10,96.95,-2.40
48,4799,-0.946961,0.016129,0.235878,311.10,-282.05,-115.40
49,4899,-0.949006,0.014203,0.242148,-138.91,692.94,106.59
50,4999,-0.946532,0.014599,0.247972,17.11,79.96,-16.39
1,0,0.000565,0.012340,0.999537,-20.90,-60.05,-253.40
2,99,0.002400,0.021145,1.000518,17.12,-107.03,6.62
3,199,0.004838,0.028519,1.001039,238.09,436.94,-211.41
4,299,0.003816,0.036728,1.000714,249.10,465.95,-228.40
5,399,0.003113,0.044384,1.000950,369.10,602.95,-67.40
6,499,0.002185,0.050634,1.001334,415.10,691.95,-85.40
7,599,0.000500,0.055801,1.001623,535.11,953.96,-162.39
8,699,-0.000311,0.060851,1.002547,877.09,1513.94,-456.41
9,799,-0.007152,0.065694,1.003973,1127.11,1912.96,-1086.39
10,899,-0.062607,0.084000,0.998721,851.10,1666.95,340.60
11,999,-0.063875,0.087806,0.999457,626.11,927.96,-821.39
12,1109,-0.076892,0.094666,1.000907,569.11,1130.96,-72.39
13,1209,-0.073381,0.105276,0.995163,1250.10,2141.95,365.60
14,1309,-0.085467,0.113544,0.990446,511.10,1263.95,203.60
15,1419,-0.091674,0.123117,0.987040,591.10,1338.95,399.60
16,1519,-0.100174,0.130063,0.986800,923.10,2001.95,356.60
17,1619,-0.112049,0.139557,0.975134,1537.10,3277.95,415.60
18,1719,-0.119140,0.145447,0.976039,2083.11,3762.96,-156.39
19,1829,-0.141866,0.162191,0.964852,3025.10,5422.95,-544.40
20,1929,-0.185463,0.180800,0.960012,3272.11,7100.96,749.61
21,2029,-0.200128,0.206358,0.928377,225.08,7295.93,-894.42
22,2139,-0.267140,0.245936,0.887242,1017.10,9770.95,-3160.40
23,2239,-0.332943,0.242644,0.845282,-546.90,11079.95,-5019.40
24,2339,-0.376901,0.244955,0.777152,-1634.90,15459.95,-4229.40
25,2439,-0.589791,0.218117,0.691135,-1718.90,9370.96,-6181.40
26,2539,-0.637849,0.196019,0.628658,-784.91,1020.94,1021.59
27,2649,-0.679448,0.186500,0.577220,-598.89,1321.96,-414.39
28,2749,-0.702229,0.180643,0.521870,-2088.91,3508.94,-2176.41
29,2849,-0.759733,0.154865,0.476745,-1350.88,2120.97,-1274.38
30,2949,-0.794989,0.135992,0.428922,-428.90,865.95,-739.40
31,3059,-0.821971,0.119493,0.389958,311.11,-375.04,-95.39
32,3159,-0.845986,0.106970,0.356179,-21.88,-357.03,238.62
33,3259,-0.865667,0.097076,0.327192,-11.90,-205.05,127.60
34,3359,-0.882616,0.089050,0.303212,-60.90,-184.05,107.60
35,3469,-0.895447,0.082723,0.284275,-121.89,-259.04,227.61
36,3569,-0.907783,0.076356,0.268179,-59.91,-98.06,31.59
37,3669,-0.918048,0.072318,0.253637,-46.90,-182.05,134.60
38,3769,-0.925381,0.068867,0.243492,-14.89,-78.04,43.61
39,3879,-0.932073,0.065787,0.235107,-19.89,-24.04,43.61
40,3979,-0.938200,0.062638,0.228034,-16.89,-113.04,81.61
41,4079,-0.942602,0.060291,0.222425,-68.89,-65.04,58.61
42,4189,-0.946894,0.058461,0.216669,-39.90,-184.05,141.60
43,4289,-0.950651,0.057015,0.211428,-47.91,-213.06,212.59
44,4389,-0.951666,0.057306,0.208969,-116.90,-106.05,71.60
45,4489,-0.955074,0.055868,0.205890,-47.90,-259.05,178.60
46,4589,-0.954803,0.056203,0.205672,-76.90,-331.05,329.60
47,4699,-0.956550,0.057513,0.204992,-37.90,87.95,-76.40
48,4799,-0.957889,0.058626,0.204103,9.11,-151.04,97.61
49,4899,-0.958734,0.059097,0.204318,-93.90,-105.05,111.60
50,4999,-0.959727,0.059368,0.204775,-47.92,-168.07,123.58
1,0,0.006113,0.009502,0.998750,24.10,-158.05,182.60
2,99,0.011363,0.018641,0.997413,-2.90,548.95,-104.40
3,199,0.010150,0.026537,0.998528,-11.90,818.95,-272.40
4,299,0.007599,0.032828,1.000063,47.11,264.96,35.61
5,399,0.010686,0.039640,0.998950,51.11,165.96,-47.39
6,499,0.012267,0.042611,0.999744,-15.90,604.95,-89.40
7,599,0.009179,0.046619,0.999320,-18.89,893.96,-180.39
8,699,0.004723,0.048561,0.998410,-53.89,1333.96,-241.39
9,799,-0.005272,0.048948,1.000877,-34.89,1119.96,-332.39
10,899,-0.010600,0.050852,0.998947,-3.90,1385.95,-510.40
11,999,-0.025016,0.040843,1.020999,47.10,2381.95,-702.40
12,1109,-0.033626,0.047258,1.016746,138.10,424.95,31.60
13,1209,-0.070004,0.054982,1.010549,285.10,855.95,-54.40
14,1309,-0.081332,0.052593,1.012276,1140.11,1654.96,-1911.39
15,1419,-0.064832,0.045051,1.014971,393.10,1385.95,-895.40
16,1519,-0.074044,0.054809,0.995984,733.10,2865.95,232.60
17,1619,-0.100897,0.071544,0.964648,-1991.88,2075.97,97.62
18,1719,-0.109991,0.073061,0.944568,-428.90,8777.95,77.60
19,1829,-0.222731,0.029875,1.050418,-3391.90,6290.95,41.60
20,1929,-0.280547,0.028139,1.056053,-477.90,2358.95,-637.40
21,2029,-0.302701,0.032688,1.031710,-340.89,1536.96,-771.39
22,2139,-0.324078,0.030842,1.013014,-183.90,2572.95,-76.40
23,2239,-0.344188,0.036213,0.984507,-530.88,8540.97,-11.38
24,2339,-0.378348,0.041473,0.947129,-754.89,12218.96,390.61
25,2439,-0.395281,0.040488,0.904316,-1572.91,14505.94,917.59
26,2539,-0.520672,0.039266,0.800030,-4005.90,13998.95,-552.40
27,2649,-0.586824,0.031783,0.713822,-451.89,9974.96,-2948.39
28,2749,-0.610168,0.020020,0.632726,-667.90,11193.95,-1520.40
29,2849,-0.682104,0.008849,0.515474,-1238.90,11698.95,-2791.40
30,2949,-0.740412,-0.017399,0.408686,-814.89,1274.96,-524.39
31,3059,-0.776826,-0.030116,0.328739,408.12,-2406.03,774.62
32,3159,-0.803017,-0.038234,0.268345,83.11,-1160.04,382.61
33,3259,-0.830169,-0.045720,0.216132,-35.90,-584.05,143.60
34,3359,-0.855536,-0.051771,0.172593,54.12,-1060.03,295.62
35,3469,-0.880028,-0.056421,0.137800,177.11,-3674.04,883.61
36,3569,-0.901341,-0.059659,0.117784,159.10,-6978.05,1551.60
37,3669,-0.898968,-0.058878,0.124099,389.11,-9021.04,1640.61
38,3769,-0.894936,-0.045908,0.152043,815.11,-1974.04,648.61
39,3879,-0.904656,-0.043015,0.165267,-100.90,809.95,-312.40
40,3979,-0.910611,-0.040079,0.178485,67.11,-561.04,168.61
41,4079,-0.913878,-0.038206,0.191038,165.10,69.95,-60.40
42,4189,-0.922569,-0.034234,0.196966,80.11,-221.04,224.61
43,4289,-0.922652,-0.029155,0.207956,34.09,-761.06,232.59
44,4389,-0.933122,-0.030074,0.213122,119.10,-1547.05,798.60
45,4489,-0.939934,-0.024227,0.220956,555.10,-4402.05,1678.60
46,4589,-0.907895,-0.019056,0.256106,645.09,-2539.06,-312.41
47,4699,-0.911332,-0.014972,0.269431,260.10,502.95,-210.40
48,4799,-0.904273,-0.008241,0.287312,9.11,-113.04,-0.39
49,4899,-0.908693,-0.003399,0.295810,-90.91,140.94,32.59
50,4999,-0.913164,0.003720,0.303234,105.10,-353.05,13.60
1,0,0.000711,0.010180,0.999922,10.09,8.94,61.59
2,99,0.000363,0.018960,0.999764,11.09,66.94,103.59
3,199,-0.000977,0.026589,0.999611,54.09,202.94,-43.41
4,299,-0.002298,0.034831,1.002210,26.09,146.94,199.59
5,399,-0.004374,0.038962,1.005077,11.08,25.93,189.58
6,499,-0.003630,0.043938,1.002754,80.09,122.94,290.59
7,599,0.002295,0.044359,1.003215,59.10,331.95,-306.40
8,699,0.002607,0.052444,0.998150,1.10,555.95,176.60
9,799,-0.001248,0.057339,0.996555,545.10,1042.95,-108.40
10,899,-0.006978,0.060365,1.000326,660.09,1449.94,-75.41
11,999,-0.014193,0.066983,0.995970,248.10,1215.95,323.60
12,1109,-0.020563,0.076581,0.991406,688.09,1730.94,-14.41
13,1209,-0.022609,0.079229,1.003035,1257.10,2749.95,80.60
14,1309,-0.041249,0.087961,1.003417,1934.08,3674.93,-155.42
15,1419,-0.064856,0.102873,0.990687,1558.09,3579.94,-239.41
16,1519,-0.092320,0.119594,0.960145,96.09,2913.94,119.59
17,1619,-0.106765,0.112713,0.967510,-2912.90,6687.95,-844.40
18,1719,-0.248554,0.059386,1.065707,-7590.91,4628.94,-4719.41
19,1829,-0.258570,0.068513,1.025780,-3043.91,4755.94,-3076.41
20,1929,-0.275397,0.061457,0.993472,-2632.91,11392.94,-2837.41
21,2029,-0.314566,0.050846,0.935816,-1508.91,19293.94,1752.59
22,2139,-0.431117,0.056658,0.835191,-7744.91,21228.94,5842.59
23,2239,-0.505448,0.052681,0.718165,1168.09,3553.94,-1098.41
24,2339,-0.568593,0.049667,0.641783,1359.10,6466.95,-1103.40
25,2439,-0.627557,0.036576,0.556717,-1602.90,9835.95,-2012.40
26,2539,-0.682640,0.021531,0.458043,-1377.91,6356.94,-71.41
27,2649,-0.727738,0.009365,0.370600,-10.90,1313.95,2.60
28,2749,-0.768380,0.001587,0.298068,523.08,-2233.07,133.58
29,2849,-0.796901,-0.004219,0.248665,472.09,-1763.06,165.59
30,2949,-0.825410,-0.009300,0.205776,-37.91,-980.06,103.59
31,3059,-0.850832,-0.013784,0.170656,137.09,-1946.06,283.59
32,3159,-0.872790,-0.015819,0.144467,221.09,-1911.06,406.59
33,3259,-0.891454,-0.017109,0.126820,309.09,-2152.06,355.59
34,3359,-0.905689,-0.019268,0.120133,184.08,-4025.07,695.58
35,3469,-0.919564,-0.018503,0.120785,180.09,-5367.06,737.59
36,3569,-0.936229,-0.014191,0.124964,251.08,-7268.07,1088.58
37,3669,-0.933127,-0.004355,0.146992,7.10,-206.05,-174.40
38,3769,-0.939317,-0.009214,0.173754,-104.93,-2826.08,-974.43
39,3879,-0.944394,-0.009170,0.196044,-1638.91,-2089.06,241.59
40,3979,-0.944572,-0.023396,0.236652,-1090.91,-6545.06,-853.41
41,4079,-0.920498,-0.022689,0.274666,978.08,-9524.07,-1449.42
42,4189,-0.885864,-0.025385,0.328255,1777.08,-958.07,-1556.42
43,4289,-0.878195,-0.023995,0.357545,931.08,726.93,-553.42
44,4389,-0.876255,-0.026055,0.384072,747.09,-2318.06,-770.41
45,4489,-0.858803,-0.028484,0.417240,659.08,-3943.07,-903.42
46,4589,-0.829669,-0.030072,0.455906,-51.93,1600.92,173.57
47,4699,-0.832371,-0.030415,0.469052,0.09,2803.94,259.59
48,4799,-0.829504,-0.031457,0.483851,24.08,-2052.07,-209.42
49,4899,-0.814798,-0.032690,0.504579,53.09,-534.06,-97.41
50,4999,-0.811399,-0.033263,0.517071,73.08,523.93,-28.42
1,0,-0.011173,0.009905,0.998970,40.09,41.94,-52.41
2,99,-0.024863,0.019917,0.997819,45.10,172.95,-159.40
3,199,-0.031995,0.027640,0.997226,9.08,-17.07,-29.42
4,299,-0.039541,0.035248,0.997692,37.09,53.94,8.59
5,399,-0.044471,0.041404,0.998454,115.09,258.94,-8.41
6,499,-0.049175,0.046307,0.998022,50.08,63.93,-14.42
7,599,-0.054619,0.049778,0.997526,27.09,98.94,-43.41
8,699,-0.063240,0.053424,0.997416,241.07,502.92,57.57
9,799,-0.074704,0.059619,0.995547,76.10,214.95,116.60
10,899,-0.069435,0.058896,0.999341,360.08,772.93,-319.42
11,999,-0.079640,0.064343,1.000021,267.10,1032.95,28.60
12,1109,-0.077860,0.069339,0.990546,-821.91,350.94,-426.41
13,1209,-0.082444,0.072102,0.985825,-425.92,2406.93,-561.42
14,1309,-0.097657,0.064472,0.985767,30.09,2007.94,-256.41
15,1419,-0.104508,0.063882,0.975977,343.10,7031.95,24.60
16,1519,-0.118114,0.075392,0.962144,-1336.92,6705.93,-983.42
17,1619,-0.198966,0.078932,0.911549,-1377.92,280.93,-31.42
18,1719,-0.235025,0.070606,0.909302,-801.92,1805.93,-742.42
19,1829,-0.272120,0.069957,0.902833,-812.93,1615.92,-421.43
20,1929,-0.296015,0.058253,0.898067,-1202.92,1255.93,-875.42
21,2029,-0.328099,0.048764,0.891453,-1848.91,1589.94,-714.41
22,2139,-0.349750,0.034490,0.881656,-1902.91,2799.94,-1596.41
23,2239,-0.429255,0.003827,0.864649,-805.92,6551.93,-223.42
24,2339,-0.434707,-0.011342,0.861033,-711.91,7019.94,1604.59
25,2439,-0.464243,-0.025645,0.846644,-2403.91,8298.94,3378.59
26,2539,-0.447802,-0.027696,0.801124,-1859.91,21477.94,5450.59
27,2649,-0.577162,-0.016987,0.667822,921.10,6738.95,-1140.40
28,2749,-0.587490,-0.019915,0.645262,1062.10,-5634.05,360.60
29,2849,-0.643712,-0.019583,0.591424,-200.90,134.95,329.60
30,2949,-0.688918,-0.019229,0.549270,-121.90,-503.05,77.60
31,3059,-0.726704,-0.018012,0.514042,-27.93,-205.08,20.57
32,3159,-0.756532,-0.017875,0.486241,48.10,-48.05,-35.40
33,3259,-0.782711,-0.017777,0.462518,-16.92,-16.07,13.58
34,3359,-0.803717,-0.017455,0.443123,-16.92,-177.07,-12.42
35,3469,-0.821755,-0.017292,0.426436,16.09,-56.06,-6.41
36,3569,-0.837051,-0.016969,0.412033,3.10,-84.05,-6.40
37,3669,-0.851554,-0.015945,0.398032,-31.91,-139.06,27.59
38,3769,-0.862178,-0.016484,0.388383,-54.90,-340.05,-0.40
39,3879,-0.872198,-0.016008,0.380053,-26.91,-149.06,-19.41
40,3979,-0.880386,-0.016281,0.373175,-11.91,-355.06,-75.41
41,4079,-0.886979,-0.016147,0.368298,-4.91,-753.06,-137.41
42,4189,-0.893682,-0.015979,0.363915,67.07,-397.08,-109.43
43,4289,-0.896834,-0.015799,0.361984,241.09,-288.06,-157.41
44,4389,-0.898836,-0.016378,0.361917,2.09,-518.06,-148.41
45,4489,-0.900793,-0.017896,0.362776,64.10,-937.05,-302.40
46,4589,-0.901395,-0.019167,0.365410,153.10,-734.05,-331.40
47,4699,-0.902969,-0.021860,0.369645,-22.90,-1666.05,-514.40
48,4799,-0.899674,-0.025613,0.378518,65.09,-1665.06,-515.41
49,4899,-0.893999,-0.028419,0.389247,36.08,-786.07,-247.42
50,4999,-0.891885,-0.029156,0.396370,-63.91,-1341.06,-283.41
1,0,-0.005405,0.010729,1.000398,42.09,95.94,-4.41
2,99,-0.011153,0.019867,1.000388,77.10,144.95,-73.40
3,199,-0.013658,0.027085,0.999904,65.08,176.93,-26.42
4,299,-0.016630,0.033824,0.999895,41.09,171.94,-96.41
5,399,-0.017655,0.038289,1.000638,284.08,618.93,-66.42
6,499,-0.021198,0.042249,1.002076,568.10,1115.95,-27.40
7,599,-0.027397,0.048636,0.999946,731.08,1359.93,-22.42
8,699,-0.034259,0.058662,0.997954,-259.91,-561.06,177.59
9,799,-0.045292,0.057991,1.004188,453.07,1153.92,495.57
10,899,-0.053828,0.065899,0.995114,652.08,1845.93,195.58
11,999,-0.081243,0.079377,0.981871,784.10,1603.95,-17.40
12,1109,-0.088341,0.084626,0.979605,536.08,1460.93,-48.42
13,1209,-0.105269,0.089766,0.976891,610.10,1471.95,588.60
14,1309,-0.114201,0.093274,0.983355,857.09,2350.94,662.59
15,1419,-0.112126,0.086386,0.987147,-2034.93,4273.92,448.57
16,1519,-0.118894,0.106624,0.925423,-4356.90,8273.95,-1834.40
17,1619,-0.188277,0.121336,0.872572,-1079.91,6605.94,-129.41
18,1719,-0.201457,0.118516,0.873170,-3509.91,8989.94,-2904.41
19,1829,-0.284236,0.077153,0.860842,-701.90,16711.95,187.60
20,1929,-0.425277,0.050162,0.860836,-4816.92,19026.93,8229.58
21,2029,-0.519582,0.045639,0.751445,-3455.90,10173.95,88.60
22,2139,-0.586374,0.029253,0.672213,119.10,7859.95,-1752.40
23,2239,-0.659298,0.017228,0.560207,-519.90,7035.95,-1109.40
24,2339,-0.714636,0.002741,0.476391,-13.91,-1280.06,413.59
25,2439,-0.749534,-0.003439,0.415639,338.10,-1545.05,327.60
26,2539,-0.784910,-0.010486,0.360429,-86.90,332.95,-138.40
27,2649,-0.815932,-0.016294,0.314563,67.08,-1128.07,251.58
28,2749,-0.841238,-0.020003,0.279605,434.08,-2602.07,547.58
29,2849,-0.862309,-0.020830,0.255604,347.10,-3577.05,666.60
30,2949,-0.877784,-0.021168,0.244486,413.08,-3936.07,707.58
31,3059,-0.889254,-0.019019,0.243220,532.08,-4891.07,880.58
32,3159,-0.871666,-0.013806,0.277649,141.07,-2955.08,-246.43
33,3259,-0.885115,-0.015581,0.282286,-294.91,-1187.06,120.59
34,3359,-0.891163,-0.012897,0.288589,131.10,-633.05,-159.40
35,3469,-0.898245,-0.010744,0.292958,-1.91,-421.06,-96.41
36,3569,-0.903899,-0.010122,0.298539,34.08,-1279.07,-363.42
37,3669,-0.909199,-0.009777,0.306451,208.09,-2707.06,-779.41
38,3769,-0.904659,-0.010747,0.319896,644.08,-3966.07,-1262.42
39,3879,-0.884961,-0.018255,0.348976,659.08,-3477.07,-1291.42
40,3979,-0.883251,-0.024691,0.369445,222.09,-2780.06,-895.41
41,4079,-0.880167,-0.029229,0.390763,109.09,-2379.06,-943.41
42,4189,-0.862623,-0.033067,0.414669,-86.91,-3825.06,-1036.41
43,4289,-0.852911,-0.035084,0.445463,91.08,-3613.07,-788.42
44,4389,-0.836562,-0.042402,0.474641,-2.90,-2753.05,-433.40
45,4489,-0.807010,-0.050582,0.509073,498.09,196.94,-414.41
46,4589,-0.815473,-0.052609,0.522099,936.08,1948.93,-573.42
47,4699,-0.800876,-0.057463,0.542125,84.09,-622.06,-188.41
48,4799,-0.792388,-0.059959,0.556584,-23.92,366.93,92.58
49,4899,-0.785996,-0.062264,0.568068,-3.90,-29.05,-15.40
50,4999,-0.780783,-0.064205,0.577537,3.08,-342.07,-77.42
1,0,-0.019431,-0.005604,1.001222,1488.07,-988.08,-308.43
2,99,-0.029081,-0.002824,1.001894,2463.10,-1966.05,291.60
3,199,-0.030142,0.008054,1.000818,2218.08,-1570.07,-184.42
4,299,-0.030275,0.018655,1.001368,1631.10,-1184.05,-54.40
5,399,-0.034929,0.023290,1.011466,-158.90,190.95,-600.40
6,499,-0.029418,0.028749,1.009943,69.10,55.95,7.60
7,599,-0.026894,0.034891,1.008465,87.10,64.95,-168.40
8,699,-0.018212,0.040533,1.007154,46.09,-94.06,201.59
9,799,-0.005724,0.044303,1.003439,46.09,107.94,468.59
10,899,-0.006920,0.046171,1.005152,76.08,247.93,-1.42
11,999,-0.005446,0.049425,1.003788,72.09,349.94,-7.41
12,1109,-0.014758,0.053711,0.997154,85.11,543.96,-60.39
13,1209,-0.006431,0.054644,0.992266,76.10,4578.95,87.60
14,1309,0.008318,0.061223,0.988734,-355.89,11092.96,1123.61
15,1419,-0.024921,0.073480,0.956710,-30.89,6188.96,542.61
16,1519,-0.069250,0.080695,0.936593,-872.88,8907.97,-1125.38
17,1619,-0.120847,0.084410,0.936706,-110.89,4928.96,-3715.39
18,1719,-0.154578,0.058656,0.927684,353.11,12630.96,-4444.39
19,1829,-0.210550,0.057694,0.869477,1024.11,22624.96,-1849.39
20,1929,-0.445316,0.085220,0.757654,-2296.90,32897.95,3485.60
21,2029,-0.533191,0.078424,0.599873,-8652.89,18539.96,-1682.39
22,2139,-0.610833,0.061459,0.474456,-1312.90,7492.95,-939.40
23,2239,-0.660550,0.046563,0.363165,-42.90,-514.05,-484.40
24,2339,-0.707094,0.041720,0.270544,-347.89,-71.04,-2.39
25,2439,-0.742280,0.032166,0.195332,26.10,-3907.05,-983.40
26,2539,-0.781801,0.028878,0.128473,-138.88,-242.03,71.62
27,2649,-0.816731,0.021342,0.078216,-861.88,-3895.03,1205.62
28,2749,-0.839372,0.022186,0.048406,-143.89,-5457.04,1753.61
29,2849,-0.860411,0.024918,0.034329,-146.89,-4221.04,1331.61
30,2949,-0.880967,0.027515,0.028205,-799.89,-6601.04,1677.61
31,3059,-0.897030,0.031096,0.040009,85.12,-4727.03,-289.38
32,3159,-0.889939,0.031631,0.084375,-218.90,351.95,52.60
33,3259,-0.898358,0.035308,0.098081,-123.90,-522.05,-3.40
34,3359,-0.907345,0.038068,0.107626,-36.90,-184.05,-4.40
35,3469,-0.919031,0.040779,0.111490,-52.91,-173.06,1.59
36,3569,-0.927682,0.044219,0.115654,25.09,364.94,-7.41
37,3669,-0.932985,0.045184,0.121793,247.09,96.94,-12.41
38,3769,-0.938555,0.046774,0.126041,2.09,21.94,-9.41
39,3879,-0.945816,0.048710,0.125862,-17.91,-70.06,0.59
40,3979,-0.951823,0.050540,0.126167,-34.91,-107.06,-1.41
41,4079,-0.957935,0.052003,0.125181,-6.90,-39.05,-3.40
42,4189,-0.961172,0.053357,0.126852,-65.90,-120.05,-1.40
43,4289,-0.962623,0.054178,0.128950,288.10,-35.05,-8.40
44,4389,-0.964241,0.056597,0.129817,-13.90,215.95,-25.40
45,4489,-0.966953,0.057427,0.129310,52.10,130.95,9.60
46,4589,-0.968214,0.057491,0.130380,-27.89,-102.04,-7.39
47,4699,-0.969762,0.058480,0.130868,28.10,43.95,5.60
48,4799,-0.971243,0.058771,0.131484,23.11,65.96,-11.39
49,4899,-0.971678,0.058468,0.132503,13.09,47.94,-10.41
50,4999,-0.972761,0.058688,0.132599,2.11,-15.04,-6.39
1,0,-0.000149,0.000677,1.005452,-5.90,-88.05,43.60
2,99,0.000090,0.003248,1.003897,-11.88,8.97,48.62
3,199,-0.000109,0.007667,1.003399,36.11,-96.04,90.61
4,299,-0.001908,0.006865,1.004386,-35.87,-15.02,-17.37
5,399,-0.005488,0.007226,1.004895,48.11,-110.04,128.61
6,499,0.012288,0.008284,1.003717,166.12,106.97,345.62
7,599,0.005737,0.012717,1.004381,-78.89,117.96,153.61
8,699,0.002621,0.016118,1.003902,-114.91,270.94,167.59
9,799,0.003140,0.015201,1.011845,-102.89,220.96,377.61
10,899,0.002136,0.022149,1.005523,-30.87,118.98,-438.37
11,999,0.004614,0.016647,1.011538,-21.89,135.96,-330.39
12,1109,0.005934,0.022352,1.009473,-45.89,-6.04,-194.39
13,1209,0.007275,0.023467,1.003048,-134.88,380.97,720.62
14,1309,0.007353,0.027050,0.998558,-71.89,520.96,730.61
15,1419,0.008609,0.032202,1.004116,-58.88,3119.97,-41.38
16,1519,-0.002279,0.031070,1.001645,-139.89,5172.96,138.61
17,1619,-0.028893,0.027727,0.997914,-191.89,5167.96,341.61
18,1719,-0.059847,0.025234,0.995000,-119.90,4619.95,297.60
19,1829,-0.093133,0.023773,0.988183,-193.90,4725.95,344.60
20,1929,-0.126902,0.025205,0.979092,-180.90,5765.95,334.60
21,2029,-0.163241,0.024005,0.965781,-304.90,7970.95,201.60
22,2139,-0.184094,0.022857,0.923411,-494.88,17554.97,-7.38
23,2239,-0.264753,0.027082,0.845924,-2995.89,21216.96,1755.61
24,2339,-0.364423,0.002328,0.779858,220.12,19590.97,-3667.38
25,2439,-0.436819,-0.002160,0.650058,-973.88,19099.96,-4478.38
26,2539,-0.554569,-0.010095,0.494811,-167.89,904.96,-1306.39
27,2649,-0.615710,-0.017535,0.416886,308.11,-3688.04,1716.61
28,2749,-0.668248,-0.019007,0.356948,845.11,-3325.04,910.61
29,2849,-0.722371,-0.010938,0.307137,209.12,1859.97,-5.38
30,2949,-0.761784,-0.013308,0.262966,-286.87,909.98,-40.37
31,3059,-0.796585,-0.018289,0.224121,195.12,-577.03,-2.38
32,3159,-0.825543,-0.020691,0.193226,232.12,-883.03,237.62
33,3259,-0.850305,-0.025407,0.175498,312.11,-965.04,222.61
34,3359,-0.872066,-0.024892,0.153509,156.11,88.96,-9.39
35,3469,-0.887926,-0.027073,0.138003,308.13,250.98,-2.37
36,3569,-0.901608,-0.026931,0.122681,-141.88,-43.03,143.62
37,3669,-0.916168,-0.027946,0.110372,75.12,-536.03,34.62
38,3769,-0.926988,-0.026428,0.098096,-319.88,137.97,-53.38
39,3879,-0.936184,-0.026786,0.088852,-75.88,-58.03,7.62
40,3979,-0.943250,-0.026467,0.080940,-412.88,165.97,-234.38
41,4079,-0.948928,-0.027606,0.075312,63.10,-30.05,-32.40
42,4189,-0.954412,-0.028154,0.069156,71.11,68.96,-28.39
43,4289,-0.958690,-0.027941,0.063612,-10.88,-61.03,78.62
44,4389,-0.963003,-0.028750,0.058991,205.11,-73.04,56.61
45,4489,-0.965058,-0.027587,0.055960,13.11,-35.04,2.61
46,4589,-0.966860,-0.027423,0.053458,-14.88,-51.03,76.62
47,4699,-0.968812,-0.026441,0.051220,74.12,7.97,42.62
48,4799,-0.971204,-0.026706,0.049355,203.11,-85.04,147.61
49,4899,-0.974061,-0.026729,0.046946,54.11,7.96,-6.39
50,4999,-0.974860,-0.026510,0.045979,-14.88,45.97,20.62
1,0,-0.001303,0.008642,1.000105,13.11,-23.04,26.61
2,99,-0.004150,0.016317,1.000304,-2.89,-17.04,15.61
3,199,-0.005984,0.026118,1.001957,-30.88,-158.03,4.62
4,299,-0.012852,0.035896,1.000890,17.11,141.96,-181.39
5,399,0.000994,0.032526,1.002253,96.14,-80.01,-226.36
6,499,0.003461,0.037479,0.999732,29.13,-32.02,25.63
7,599,-0.003451,0.046871,1.002825,137.12,643.97,-955.38
8,699,-0.008063,0.050387,1.008348,238.13,778.98,-250.37
9,799,-0.005629,0.071118,1.004271,612.12,505.97,-726.38
10,899,-0.025734,0.057667,1.010437,447.12,1193.97,389.62
11,999,-0.027974,0.062401,1.013793,924.11,1563.96,1066.61
12,1109,-0.027919,0.062251,1.009888,2156.13,4047.98,706.63
13,1209,-0.060958,0.077412,0.993258,2766.12,5220.97,671.62
14,1309,-0.086112,0.092881,0.990584,1243.14,3654.99,899.64
15,1419,-0.109489,0.102533,0.983789,1624.12,4652.97,220.62
16,1519,-0.136355,0.126044,0.978397,1752.11,5848.96,524.61
17,1619,-0.166697,0.151467,0.960631,621.14,9004.99,-1558.36
18,1719,-0.221895,0.165861,0.927255,-753.89,10725.96,-3445.39
19,1829,-0.291940,0.163980,0.885794,-1509.89,11598.96,-3131.39
20,1929,-0.364461,0.153591,0.834695,-833.89,11710.96,-1817.39
21,2029,-0.419273,0.149503,0.764088,-111.87,14249.98,-2542.37
22,2139,-0.579022,0.130062,0.662837,-3232.87,2482.98,52.63
23,2239,-0.600515,0.130822,0.570457,-3162.89,4638.96,202.61
24,2339,-0.778708,0.076591,0.530550,-1401.89,5889.96,-1407.39
25,2439,-0.793063,0.064058,0.469749,-299.87,365.98,437.63
26,2539,-0.792575,0.065545,0.377035,-691.89,10849.96,-445.39
27,2649,-0.783646,0.062286,0.282755,-825.87,-1790.02,-1072.37
28,2749,-0.808814,0.053382,0.213989,24.12,-233.03,178.62
29,2849,-0.834528,0.044093,0.154090,-22.87,-117.02,76.63
30,2949,-0.853565,0.037771,0.105923,-26.88,-416.03,240.62
31,3059,-0.871047,0.031519,0.064890,-59.89,-270.04,104.61
32,3159,-0.887994,0.026443,0.028656,104.12,-353.03,197.62
33,3259,-0.901794,0.022366,0.000055,158.12,-690.03,344.62
34,3359,-0.913964,0.019798,-0.022205,104.12,-1216.03,517.62
35,3469,-0.924711,0.020178,-0.037885,46.12,-1837.03,642.62
36,3569,-0.935110,0.021674,-0.048211,128.12,-1707.03,667.62
37,3669,-0.943729,0.022707,-0.053087,43.12,-1272.03,47.62
38,3769,-0.957885,0.022541,-0.058990,44.12,-4116.03,103.62
39,3879,-0.961018,0.017933,-0.038848,275.14,-7267.01,486.64
40,3979,-0.932554,0.028609,-0.000103,-93.89,-36.04,47.61
41,4079,-0.951481,0.029572,0.007909,160.12,-3209.03,630.62
42,4189,-0.941550,0.034822,0.036473,427.12,-1656.03,599.62
43,4289,-0.931368,0.048421,0.050718,-416.89,1942.96,-471.39
44,4389,-0.951773,0.044105,0.044241,4.12,-333.03,145.62
45,4489,-0.957344,0.045985,0.054665,-1.89,73.96,26.61
46,4589,-0.962499,0.048096,0.066456,-83.87,532.98,-17.37
47,4699,-0.964117,0.048974,0.073585,13.12,204.97,-23.38
48,4799,-0.965529,0.049537,0.079425,35.12,188.97,-9.38
49,4899,-0.967131,0.050840,0.083638,0.12,27.97,-2.38
50,4999,-0.967597,0.051765,0.087421,-55.89,142.96,-44.39
1,0,0.003751,0.009118,0.999775,-20.90,706.95,-143.40
2,99,0.002326,0.017876,1.000610,-28.87,848.98,-29.37
3,199,-0.003353,0.023562,1.001100,10.14,589.99,130.64
4,299,-0.008218,0.029878,1.001498,-8.87,319.98,-125.37
5,399,-0.009953,0.034753,1.001013,-9.87,630.98,62.63
6,499,-0.011136,0.040471,0.998329,-15.88,1631.97,-77.38
7,599,-0.021443,0.042109,0.998154,-120.87,2376.98,-361.37
8,699,-0.039029,0.045533,0.998628,-44.86,1487.99,-97.36
9,799,-0.049364,0.048133,0.998097,-12.87,906.98,173.63
10,899,-0.053973,0.048951,0.995302,-57.87,1959.98,-214.37
11,999,-0.082244,0.053528,0.987945,-97.87,3852.98,-397.37
12,1109,-0.111694,0.061319,0.977188,-212.87,1976.98,-659.37
13,1209,-0.132808,0.056643,0.969729,-0.87,3429.98,-371.37
14,1309,-0.143706,0.066585,0.949821,914.13,4747.98,-608.37
15,1419,-0.168643,0.072765,0.934803,1793.13,4713.98,589.63
16,1519,-0.211665,0.070584,0.941648,266.13,3156.98,250.63
17,1619,-0.242393,0.064537,0.995569,-3880.87,-146.02,-1453.37
18,1719,-0.238446,0.074448,0.956110,-1935.88,3980.97,-1352.38
19,1829,-0.268563,0.066119,0.944965,-903.87,8783.98,-2061.37
20,1929,-0.332687,0.047430,0.926940,-1978.87,14334.98,-206.37
21,2029,-0.399424,0.033430,0.868955,-3005.87,15558.99,1387.63
22,2139,-0.495958,0.028049,0.792935,-3112.87,10788.98,1455.63
23,2239,-0.594510,0.018403,0.712021,-506.88,-1896.03,5.62
24,2339,-0.582661,0.011303,0.693104,750.13,6419.98,-34.37
25,2439,-0.617011,0.010669,0.619639,-857.89,20697.96,-2104.39
26,2539,-0.767132,-0.006148,0.455625,-2228.87,18432.98,-678.37
27,2649,-0.802064,-0.017073,0.345694,334.14,3165.99,3512.64
28,2749,-0.816888,-0.010814,0.237640,512.13,3658.98,2440.63
29,2849,-0.835586,-0.009137,0.149329,411.14,-2085.01,-462.36
30,2949,-0.850253,-0.007254,0.076076,8.12,-472.03,32.62
31,3059,-0.862976,-0.006350,0.014032,-43.87,-671.02,-45.37
32,3159,-0.875567,0.001689,-0.052750,222.13,4376.98,-5103.37
33,3259,-0.892897,-0.006640,-0.101788,-17.86,-1508.01,477.64
34,3359,-0.893840,-0.010313,-0.131495,-162.87,-4212.02,459.63
35,3469,-0.901966,-0.013930,-0.147517,215.13,-1962.02,236.63
36,3569,-0.910814,-0.015027,-0.162272,31.11,-1417.04,78.61
37,3669,-0.920093,-0.015703,-0.173879,-12.87,-1797.02,128.63
38,3769,-0.926148,-0.016754,-0.178106,89.13,-1895.02,91.63
39,3879,-0.934830,-0.017958,-0.177158,-95.88,-2516.03,203.62
40,3979,-0.943765,-0.018927,-0.172085,-121.87,-2750.02,165.63
41,4079,-0.956451,-0.017572,-0.165338,-137.88,-5875.03,823.62
42,4189,-0.959544,-0.016273,-0.135598,262.12,-8886.03,1049.62
43,4289,-0.955727,-0.011013,-0.089171,202.12,-7439.03,831.62
44,4389,-0.949058,-0.005132,-0.037457,484.13,-1581.02,176.63
45,4489,-0.951923,-0.004601,0.001299,283.12,225.97,122.62
46,4589,-0.953168,-0.002849,0.035322,224.13,547.98,-185.37
47,4699,-0.956917,0.000507,0.061128,433.12,-1103.03,-745.38
48,4799,-0.952982,0.002152,0.092860,1405.12,581.97,-121.38
49,4899,-0.954635,0.010142,0.111300,-289.87,-823.02,-25.37
50,4999,-0.951829,0.007943,0.134939,-124.86,-805.01,-362.36
1,0,-0.003576,-0.000101,1.000015,3.90,-48.95,-5.30
2,98,0.001093,-0.006668,0.999789,-29.09,-56.94,0.71
3,198,0.003799,-0.006922,0.999213,12.91,63.06,-2.29
4,298,0.003114,-0.006607,0.999657,33.92,167.07,149.72
5,398,0.004162,-0.011411,1.002617,89.92,545.07,1007.72
6,498,0.002708,-0.008902,0.999712,476.91,998.06,715.71
7,598,-0.005723,-0.012282,1.000796,348.92,1207.07,1049.72
8,698,0.027705,-0.017937,1.012044,3891.93,8194.08,-829.27
9,798,-0.021078,-0.001119,0.985075,9570.92,15312.07,-5528.28
10,898,-0.174128,0.047178,0.973321,-47.08,5356.07,2148.72
11,998,-0.171012,0.062120,0.964557,798.92,9117.07,-1891.28
12,1108,-0.236076,0.077622,0.917411,2912.92,16002.07,-6414.28
13,1208,-0.335563,0.098288,0.849925,-1591.08,11785.07,-1492.28
14,1308,-0.414433,0.095402,0.779012,-887.09,10360.06,-2170.29
15,1418,-0.500899,0.092582,0.700921,-319.08,11673.07,-3792.28
16,1518,-0.574085,0.092364,0.599331,-4627.08,5780.07,191.72
17,1618,-0.660938,0.049679,0.567967,-2654.08,2497.07,149.72
18,1718,-0.708562,0.046137,0.494927,-97.08,193.07,22.72
19,1828,-0.745086,0.042211,0.429144,-9.08,2800.07,1.72
20,1928,-0.779062,0.037299,0.369676,-0.08,1730.07,72.72
21,2028,-0.803125,0.034021,0.320850,-4.08,1834.07,81.72
22,2138,-0.831014,0.032406,0.267244,-42.08,1771.07,38.72
23,2238,-0.851990,0.030631,0.221624,24.92,-880.93,-29.28
24,2338,-0.866964,0.028518,0.189531,17.93,-1204.92,-42.27
25,2438,-0.877861,0.027820,0.164796,0.91,-214.94,-7.29
26,2538,-0.889503,0.026549,0.141831,5.91,645.06,25.71
27,2648,-0.900022,0.024920,0.120919,-17.08,321.07,2.72
28,2748,-0.909256,0.023700,0.102778,3.92,33.07,6.72
29,2848,-0.916903,0.023597,0.086809,-15.07,-140.92,-6.27
30,2948,-0.925765,0.022924,0.072026,7.91,-1352.94,-61.29
31,3048,-0.930350,0.021893,0.066639,80.92,-2504.93,-75.28
32,3158,-0.932051,0.020926,0.068706,23.90,-1541.95,-27.30
33,3258,-0.933495,0.020543,0.072935,-30.07,-838.92,-41.27
34,3358,-0.936903,0.019925,0.075303,146.91,-1000.94,-51.29
35,3468,-0.939011,0.020333,0.081051,141.92,-767.93,-61.28
36,3568,-0.941536,0.020552,0.084070,-24.07,599.08,13.73
37,3668,-0.941119,0.020683,0.088924,114.91,-1157.94,-65.29
38,3768,-0.938731,0.020282,0.097079,-1.08,45.07,-36.28
39,3878,-0.938296,0.022083,0.101208,119.91,-935.94,-56.29
40,3978,-0.936277,0.020867,0.108637,5.92,-375.93,97.72
41,4078,-0.937985,0.019797,0.114641,33.92,-708.93,189.72
42,4188,-0.941469,0.019401,0.121593,259.92,-1451.93,580.72
43,4288,-0.951133,0.021627,0.126532,756.92,-2016.93,913.72
44,4388,-0.955685,0.028408,0.134996,-429.08,-4544.93,2392.72
45,4488,-0.948384,0.035345,0.157059,-1722.08,-6188.93,2222.72
46,4588,-0.933701,0.040911,0.188886,-586.07,-5048.92,286.73
47,4698,-0.925889,0.048297,0.224948,353.93,-3526.92,-812.27
48,4798,-0.919469,0.058530,0.260306,-767.08,-5178.93,884.72
49,4898,-0.899437,0.063402,0.299333,-1649.08,-6686.93,1709.72
50,4998,-0.865747,0.066517,0.346697,-605.09,-5479.94,1192.71
1,0,-0.000078,-0.000192,0.999832,23.92,155.07,44.72
2,99,-0.003623,0.000781,0.999671,40.93,154.08,12.73
3,199,-0.006033,0.001204,0.999845,67.92,136.07,15.72
4,299,-0.005590,0.000868,1.000085,203.94,466.09,-10.26
5,399,-0.007027,0.002304,1.000124,434.93,861.08,-11.27
6,499,-0.017513,0.004330,1.000230,420.93,827.08,-1.27
7,599,-0.022342,0.006840,1.002591,247.94,514.09,147.74
8,699,-0.029103,0.010035,1.001174,234.92,595.07,686.72
9,799,-0.029064,0.013721,1.002514,-44.07,1690.08,204.73
10,899,-0.028829,0.016250,1.004917,-82.08,3728.07,-702.28
