sample_num,timestamp_ms,acc_x(g),acc_y(g),acc_z(g),gyro_x(LSB),gyro_y(LSB),gyro_z(LSB)
1,0,0.000623,0.000959,1.000743,-32.10,14.30,119.05
2,98,0.000604,0.000235,1.003095,-20.11,7.29,-28.96
3,198,0.000697,0.006578,0.998411,51.90,141.30,-14.95
4,298,-0.001384,0.002247,1.006167,-120.11,-6.71,-76.96
5,398,-0.003209,0.002172,1.009481,-32.12,-35.72,-17.97
6,498,-0.007378,0.000461,1.007794,45.89,-114.71,161.04
7,598,-0.008284,0.001241,1.005280,38.89,-222.71,60.04
8,698,-0.002408,0.001592,1.003619,28.90,-42.70,164.05
9,798,0.009782,0.006889,1.001054,28.88,47.28,402.03
10,898,0.011757,0.006594,1.000961,15.89,9.29,-74.96
11,998,0.008310,0.007259,1.001339,-3.11,51.29,48.04
12,1108,0.003512,0.007623,1.000984,31.89,70.29,2512.04
13,1208,-0.001061,0.010441,0.992844,192.88,-130.72,-955.97
14,1308,-0.015367,0.007343,0.993104,450.89,-381.71,-1633.96
15,1418,-0.019122,0.013022,0.992152,128.89,-2732.71,300.04
16,1518,-0.012207,0.008347,0.995500,185.88,-4650.73,-37.97
17,1618,0.018335,0.005013,0.992211,-82.12,-5779.72,-1306.97
18,1718,0.054074,0.007838,0.984765,-130.12,-6235.72,-964.97
19,1828,0.079728,0.008262,0.967358,-386.11,-9890.71,-1346.96
20,1928,0.134566,0.010690,0.949687,-774.12,-11475.72,-2241.97
21,2028,0.178871,0.013121,0.911047,-1611.12,-15763.72,-2783.97
22,2138,0.271060,0.008889,0.841984,2130.88,-20381.72,3808.03
23,2238,0.404297,0.003149,0.770262,4816.89,-12878.71,1272.04
24,2338,0.519288,-0.009805,0.680971,4417.90,-9859.70,4040.05
25,2438,0.606300,-0.000180,0.598282,-2162.11,-4810.71,-3270.96
26,2538,0.655450,0.013422,0.516862,375.90,-3753.70,-2183.95
27,2648,0.711290,0.042982,0.425464,134.91,-2417.69,-1831.94
28,2748,0.752382,0.053405,0.363156,35.90,-424.70,-16.95
29,2848,0.790642,0.060177,0.309919,152.89,-573.71,-85.96
30,2948,0.823292,0.063553,0.266371,1521.90,-1360.70,-353.95
31,3058,0.853388,0.073308,0.218753,237.90,-313.70,-31.95
32,3158,0.875654,0.078632,0.181024,-121.12,-308.72,-45.97
33,3258,0.893464,0.083085,0.149779,-187.11,-126.71,6.04
34,3358,0.908695,0.086376,0.123349,-20.10,-224.70,-17.95
35,3468,0.921824,0.089136,0.101030,0.90,59.30,31.05
36,3568,0.934009,0.090787,0.081930,-17.11,13.29,10.04
37,3668,0.942718,0.092904,0.067398,-13.11,236.29,21.04
38,3768,0.950761,0.093641,0.055138,-35.11,148.29,6.04
39,3878,0.956591,0.094744,0.045595,-11.11,132.29,24.04
40,3978,0.962554,0.096230,0.036569,-15.12,-20.72,-3.97
41,4078,0.967402,0.097366,0.027651,-13.11,-49.71,5.04
42,4188,0.971157,0.098441,0.021902,13.89,202.29,26.04
43,4288,0.974605,0.099245,0.015587,-15.12,-6.72,-12.97
44,4388,0.978946,0.099800,0.009029,-37.11,-189.71,-21.96
45,4488,0.980218,0.100181,0.005414,9.88,11.28,-7.97
46,4588,0.981520,0.100705,0.002195,-28.11,99.29,-9.96
47,4698,0.983798,0.101371,-0.000871,11.88,34.28,3.03
48,4798,0.985295,0.101699,-0.003734,-2.12,-136.72,-27.97
49,4898,0.992372,0.104523,-0.011916,-8.11,363.29,43.04
50,4998,0.992473,0.103005,-0.010320,-55.11,179.29,20.04
1,0,0.000898,0.001563,0.999680,-23.11,49.29,15.04
2,99,0.001441,0.003550,0.999372,-5.12,18.28,-40.97
3,199,0.004557,0.005935,0.999915,13.87,15.27,18.02
4,299,0.004588,0.003036,1.002630,24.87,54.27,65.02
5,399,0.005072,0.005095,1.002245,38.88,-105.72,344.03
6,499,0.002682,0.005839,1.001625,-10.12,41.28,651.03
7,599,0.008853,0.005079,1.002362,-473.12,692.28,28.03
8,699,0.006665,0.001650,1.006137,271.88,-364.72,-330.97
9,799,0.006398,0.003313,1.002754,-48.11,-246.71,-919.96
10,899,0.011408,0.008608,1.001765,78.88,-242.72,4.03
11,999,0.013378,0.009941,1.002225,-21.11,29.29,122.04
12,1109,0.015858,0.009683,1.002267,-24.12,-165.72,-327.97
13,1209,0.006796,0.002542,1.003603,165.87,-468.73,-1495.98
14,1309,0.001163,0.007495,1.005636,126.88,-3096.72,370.03
15,1419,0.014081,0.007128,1.003739,44.88,-4698.72,-111.97
16,1519,0.037292,0.012345,0.994765,17.86,-5057.74,-567.99
17,1619,0.059896,0.011030,0.999515,-233.13,-6166.73,-722.98
18,1719,0.083944,0.017090,0.974475,-32.13,-7280.73,-697.98
19,1829,0.141427,0.011090,0.961798,-134.12,-7966.73,-1254.97
20,1929,0.205430,0.015438,0.940511,-539.13,-6632.73,-1333.98
21,2029,0.264832,0.010272,0.916064,-782.12,-5586.72,-1106.97
22,2139,0.328141,0.016501,0.886752,-833.12,-4992.73,-198.97
23,2239,0.374281,0.012310,0.864326,-32.13,-8167.73,-64.98
24,2339,0.431061,0.007998,0.811591,2582.90,-13330.70,2930.05
25,2439,0.484743,0.002941,0.743238,2607.88,-14445.72,1663.03
26,2539,0.529293,-0.009414,0.661755,6523.88,-19057.72,3577.03
27,2649,0.639523,0.011523,0.522767,-442.13,3252.27,-2727.98
28,2749,0.708664,0.009544,0.413765,-7858.13,-7560.73,3542.02
29,2849,0.816324,0.008118,0.288996,939.88,-1495.72,-26.97
30,2949,0.845761,0.008701,0.227182,-242.11,-240.71,82.04
31,3059,0.868000,0.010570,0.173687,-365.12,-268.72,81.03
32,3159,0.889412,0.011151,0.129992,-125.12,-86.72,57.03
33,3259,0.904719,0.013439,0.090105,28.88,76.28,12.03
34,3359,0.918041,0.014213,0.055817,9.88,-33.72,-14.97
35,3469,0.929475,0.015731,0.027203,168.89,95.29,-17.96
36,3569,0.939157,0.017076,0.002698,27.88,15.28,7.03
37,3669,0.947386,0.018256,-0.018260,-9.13,-70.73,-4.98
38,3769,0.955059,0.019240,-0.036056,-1.13,-17.73,0.02
39,3869,0.960976,0.019730,-0.051292,54.88,96.28,0.03
40,3979,0.966738,0.020493,-0.062997,38.88,62.28,-28.97
41,4079,0.973412,0.021893,-0.075163,53.86,613.26,-14.99
42,4189,0.983607,0.026433,-0.087170,-1002.15,2066.25,-178.00
43,4289,0.988355,0.028791,-0.086573,-2522.13,4797.27,-104.98
44,4389,0.953315,0.020596,-0.048180,-1788.13,3262.27,513.02
45,4489,0.954404,0.021248,-0.034883,844.88,-742.72,867.03
46,4589,0.964960,0.020941,-0.034969,1689.87,-1749.73,923.02
47,4699,0.973567,0.021560,-0.036452,-736.12,1107.28,-821.97
48,4799,0.974566,0.017801,-0.026891,-843.12,1290.28,-325.97
49,4899,0.976807,0.016876,-0.018435,229.88,-240.72,32.03
50,4999,0.982978,0.016347,-0.016209,281.87,-114.73,-137.98
1,0,0.004340,0.000775,0.999222,-9.13,5.27,-44.98
2,99,0.008981,0.002697,1.000191,-3.12,-12.72,-42.97
3,199,0.012888,0.003104,0.999385,-2.14,3.26,32.01
4,299,0.017144,0.003853,0.998992,3.87,16.27,-24.98
5,399,0.020578,0.004965,0.998842,5.87,10.27,18.02
6,499,0.024706,0.004556,0.998751,-8.13,53.27,90.02
7,599,0.026365,0.005050,0.998344,-9.13,-55.73,41.02
8,699,0.026237,0.003694,0.998986,-0.13,7.27,90.02
9,799,0.030303,0.003750,0.999148,-13.13,-121.73,-250.98
10,899,0.031580,0.006416,0.999285,22.86,-196.74,109.01
11,999,0.027246,0.000900,1.000190,-67.13,128.27,257.02
12,1109,0.033065,0.001613,0.999951,85.86,-109.74,516.01
13,1209,0.033708,0.003318,0.999767,36.88,-42.72,96.03
14,1309,0.035665,0.004694,0.999738,2.87,-118.73,-158.98
15,1419,0.028466,0.001029,1.010993,50.86,-1277.74,-1176.99
16,1519,0.023354,0.007216,1.012174,-15.12,-4297.72,-285.97
17,1619,0.032979,0.001049,1.008417,37.87,-7289.73,-465.98
18,1719,0.054198,0.001630,0.999968,127.87,-10173.73,36.02
19,1829,0.105449,0.003113,0.979731,92.87,-12820.73,49.02
20,1929,0.169685,-0.000297,0.944530,563.86,-13403.74,1195.01
21,2029,0.263892,0.006821,0.888480,1440.86,-11817.74,2440.01
22,2139,0.346128,0.005896,0.832049,-797.13,-8743.73,-2185.98
23,2239,0.431282,0.007471,0.779889,-790.13,-7978.73,-607.98
24,2339,0.498517,0.010403,0.709534,-795.13,-8406.73,-1078.98
25,2439,0.575516,0.012931,0.635377,1120.88,-8255.72,873.03
26,2539,0.651127,0.014733,0.560899,2906.88,-6376.73,410.03
27,2649,0.701938,0.022087,0.469944,2432.88,-4770.72,-78.97
28,2749,0.707829,0.017608,0.402630,-2221.14,-2421.74,-1482.99
29,2849,0.754035,0.021619,0.339261,-963.13,-1128.73,149.02
30,2949,0.776336,0.019298,0.297372,1141.86,-4318.74,435.01
31,3059,0.841984,0.025033,0.197258,681.86,-4031.74,294.01
32,3159,0.866767,0.023261,0.147098,-476.13,-851.73,150.02
33,3259,0.887338,0.022269,0.100379,-132.12,-414.72,66.03
34,3359,0.903762,0.023237,0.060228,-30.12,-275.72,47.03
35,3469,0.916183,0.023603,0.026319,-6.14,-69.74,5.01
36,3569,0.928371,0.023529,-0.004425,34.88,-149.72,9.03
37,3669,0.937669,0.023924,-0.030229,69.87,-96.73,-4.98
38,3769,0.945627,0.024003,-0.052547,-15.13,-153.73,16.02
39,3879,0.953655,0.023448,-0.071883,75.87,350.27,-14.98
40,3979,0.957750,0.024386,-0.085041,33.88,130.28,-8.97
41,4079,0.962806,0.024506,-0.097653,-21.12,-146.72,13.03
42,4189,0.967488,0.024681,-0.109363,-4.14,-70.74,-2.99
43,4289,0.971833,0.025032,-0.118822,6.86,18.26,4.01
44,4389,0.975051,0.025165,-0.127337,4.87,-23.73,-12.98
45,4489,0.977859,0.024838,-0.133752,-11.15,-46.75,1.00
46,4589,0.980778,0.024670,-0.139571,6.88,-17.72,-4.97
47,4699,0.981574,0.024967,-0.143674,17.86,77.26,-2.99
48,4799,0.983055,0.024780,-0.147858,8.85,-28.75,-3.00
49,4899,0.983619,0.024804,-0.151525,5.85,-39.75,-3.00
50,4999,0.984958,0.024549,-0.154073,48.85,42.25,-5.00
1,0,0.006408,0.001837,0.995359,82.85,51.25,-947.00
2,99,0.010463,0.003837,0.994801,121.85,-113.75,-926.00
3,199,0.016200,0.007918,0.991013,112.87,-157.73,-307.98
4,299,0.018750,0.006956,0.994531,-20.15,51.25,-396.00
5,399,0.019965,0.005863,0.994757,8.86,-46.74,-850.99
6,499,0.001443,0.005227,1.000350,150.86,40.26,-2685.99
7,599,0.005566,0.007415,0.999831,-68.13,-73.73,-395.98
8,699,0.008154,0.004660,0.998657,173.84,-242.76,-619.01
9,799,0.011179,0.005578,0.998795,79.87,-210.73,-28.98
10,899,0.014080,0.000847,0.998034,-16.13,11.27,-259.98
11,999,0.019859,0.003930,0.992680,6.86,27.26,-1956.99
12,1109,0.008658,0.008492,0.999501,64.85,-3127.75,-286.00
13,1209,0.023417,0.008633,0.995612,79.85,-5411.75,356.00
14,1309,0.050318,0.008900,0.990878,-21.14,-5969.74,-361.99
15,1419,0.102517,0.009438,0.984492,-976.15,-3148.75,-3164.00
16,1519,0.125243,0.002443,0.984154,-1745.15,-250.75,-5337.00
17,1619,0.143278,0.004115,0.989800,517.85,-4123.75,1809.00
18,1719,0.168789,0.000921,0.976471,-41.14,-7734.74,-318.99
19,1829,0.216768,0.002766,0.952142,226.86,-9504.74,-437.99
20,1929,0.263006,-0.001983,0.916337,1068.85,-12946.75,20.00
21,2029,0.334095,0.000133,0.865523,2286.86,-14022.74,1082.01
22,2139,0.427261,0.004330,0.789317,2503.86,-13323.74,1357.01
23,2239,0.525714,0.015039,0.707679,1042.86,-11014.74,-663.99
24,2339,0.602606,0.019985,0.633159,54.86,-7384.74,-1686.99
25,2439,0.643208,0.026478,0.556175,1496.86,-7873.74,-1954.99
26,2539,0.682188,0.030952,0.465196,4278.84,4369.24,-935.01
27,2649,0.722242,0.035580,0.402183,53.85,-1765.75,26.00
28,2749,0.745100,0.024316,0.348420,2949.86,-7548.74,-60.99
29,2849,0.776908,0.026918,0.261615,6213.86,-14468.74,-1051.99
30,2949,0.816762,0.036436,0.145405,273.87,-4298.73,93.02
31,3059,0.827988,0.035151,0.080153,-310.14,2198.26,-33.99
32,3159,0.849981,0.037758,0.004913,74.86,-2443.74,31.01
33,3259,0.865452,0.036219,-0.050691,-59.15,1211.25,-2.00
34,3359,0.875801,0.036523,-0.096490,13.85,-280.75,-12.00
35,3469,0.882345,0.036946,-0.136994,-178.15,-1390.75,97.00
36,3569,0.892138,0.037160,-0.174681,-0.14,-2020.74,-5.99
37,3669,0.896287,0.037670,-0.208363,69.86,424.26,10.01
38,3769,0.901772,0.037372,-0.237890,-56.15,775.25,20.00
39,3879,0.906856,0.037192,-0.263336,-27.15,-133.75,-2.00
40,3979,0.910793,0.037441,-0.284306,43.85,247.25,1.00
41,4079,0.915403,0.038276,-0.302679,-67.13,1288.27,-0.98
42,4189,0.918461,0.038125,-0.313390,-0.14,1014.26,-41.99
43,4289,0.922141,0.038674,-0.321102,3.85,307.25,-9.00
44,4389,0.927612,0.039123,-0.329855,32.86,1234.26,-47.99
45,4489,0.930157,0.040859,-0.328835,125.85,2925.25,-234.00
46,4589,0.933491,0.042151,-0.327547,178.84,-22.76,-52.01
47,4699,0.937974,0.041382,-0.324567,157.85,630.25,-14.00
48,4799,0.943414,0.041424,-0.323150,89.85,1656.25,60.00
49,4899,0.945310,0.041698,-0.311930,375.86,3580.26,-71.99
50,4999,0.948477,0.041290,-0.295581,77.85,1790.25,-7.00
1,0,0.005657,0.001306,0.999936,4.85,-5.75,23.00
2,99,0.010228,0.006590,1.000559,31.85,14.25,142.00
3,199,0.018690,0.006870,0.997097,-75.16,-32.76,-776.01
4,299,0.021398,0.004746,0.998000,-25.16,28.24,-228.01
5,399,0.015586,0.007811,0.997650,-14.18,17.22,-64.03
6,499,0.011343,0.009465,0.998726,-60.18,37.22,-186.03
7,599,0.014621,0.008636,0.998395,-51.17,-54.77,-635.02
8,699,0.015210,0.005588,0.997455,49.83,-218.77,-264.02
9,799,0.012323,0.007099,1.003632,-34.16,-500.76,-1198.01
10,899,0.004504,0.007559,1.005788,24.83,-2787.77,-754.02
11,999,0.021314,0.002274,1.002604,-23.17,-4175.77,-669.02
12,1109,0.034485,0.006131,1.002534,-14.17,-4303.77,-766.02
13,1209,0.068734,0.004686,0.996249,135.85,-4792.75,449.00
14,1309,0.101783,0.006808,0.987391,-153.15,-5477.75,-1456.00
15,1419,0.143717,0.015515,0.967099,-341.16,-6442.76,-767.01
16,1519,0.191225,0.012991,0.956974,-211.17,-6483.77,-17.02
17,1619,0.240909,0.012311,0.935770,125.83,-7283.77,-81.02
18,1719,0.289568,0.012338,0.910422,211.84,-8412.76,-22.01
19,1829,0.340833,0.016113,0.856247,238.81,-11370.79,-941.04
20,1929,0.424473,0.020110,0.797143,960.84,-11117.76,289.99
21,2029,0.498588,0.017447,0.736523,1770.83,-10675.77,1638.98
22,2139,0.580940,0.018442,0.657621,1649.84,-8318.76,-234.01
23,2239,0.637261,0.012422,0.579916,2757.83,-7636.77,1459.98
24,2339,0.696157,0.009355,0.494787,66.84,603.24,-1337.01
25,2439,0.730288,0.013359,0.440317,-1092.17,-2766.77,416.98
26,2539,0.793669,-0.000450,0.382317,327.83,-291.77,-185.02
27,2649,0.822182,0.007752,0.342978,413.83,-3678.77,476.98
28,2749,0.845960,0.009067,0.299890,-141.16,-1063.76,-633.01
29,2849,0.869615,0.008591,0.258725,44.83,-239.77,-107.02
30,2949,0.889629,0.009981,0.225327,131.84,-198.76,-130.01
31,3059,0.904957,0.012774,0.197397,22.84,101.24,-31.01
32,3159,0.919817,0.010607,0.173473,482.84,159.24,159.99
33,3259,0.929317,0.012903,0.155811,39.84,109.24,136.99
34,3359,0.942225,0.011925,0.136129,-688.17,-77.77,-149.02
35,3469,0.950616,0.009995,0.122952,-353.16,-10.76,-120.01
36,3569,0.957931,0.011064,0.110872,-19.17,-85.77,-97.02
37,3669,0.963306,0.011790,0.100897,23.84,-48.76,-113.01
38,3769,0.969213,0.012645,0.091869,-9.16,31.24,5.99
39,3879,0.974507,0.012878,0.083536,3.83,-13.77,-8.02
40,3979,0.978495,0.013881,0.076746,21.84,-6.76,3.99
41,4079,0.980547,0.014441,0.072659,-25.17,8.23,-56.02
42,4189,0.983299,0.014550,0.067886,46.83,-27.77,-35.02
43,4289,0.985364,0.014790,0.064011,-4.18,-19.78,9.97
44,4389,0.987485,0.013987,0.059491,-21.15,-31.75,-14.00
45,4489,0.989069,0.014915,0.056875,-4.16,-13.76,-34.01
46,4589,0.990981,0.015008,0.054139,4.82,-15.78,-22.03
47,4699,0.991857,0.015417,0.051612,-10.18,-9.78,-28.03
48,4799,0.993187,0.016314,0.049373,-7.16,-67.76,-31.01
49,4899,0.993896,0.015062,0.047909,-31.17,-3.77,-21.02
50,4999,0.994573,0.015683,0.046225,-2.17,15.23,-20.02
1,0,0.008733,-0.001350,1.000797,34.83,-5.77,-218.02
2,99,0.007916,0.000030,0.997757,133.84,-21.76,-250.01
3,199,0.007954,-0.001068,0.999915,-57.17,-4.77,-178.02
4,299,0.006742,0.001404,1.000871,-26.17,59.23,-22.02
5,399,0.014793,0.003469,1.001336,10.83,41.23,-9.02
6,499,0.018945,0.003210,1.001071,18.84,-7.76,-108.01
7,599,0.019562,0.003301,1.000480,-19.18,-26.78,-32.03
8,699,0.020674,-0.014016,1.018417,-15.16,-257.76,-3223.01
9,799,-0.009107,-0.003833,1.018740,144.84,-4956.76,-1052.01
10,899,0.010678,-0.005341,1.010573,192.83,-7531.77,288.98
11,999,0.048901,-0.004058,0.998981,158.84,-6759.76,-99.01
12,1109,0.101239,-0.001082,0.986856,199.84,-4694.76,696.99
13,1209,0.147283,0.002693,0.975233,-22.16,-2850.76,-342.01
14,1309,0.190558,0.003356,0.965242,-202.17,-1374.77,-304.02
15,1419,0.216612,0.006996,0.956989,-317.17,-2391.77,-589.02
16,1519,0.241870,0.008222,0.946879,-270.17,-5301.77,-873.02
17,1619,0.280882,0.009283,0.929221,261.84,-7149.76,757.99
18,1719,0.325284,0.010771,0.905735,286.84,-8154.76,97.99
19,1829,0.383479,0.017089,0.863835,369.83,-9518.77,437.98
20,1929,0.444114,0.019896,0.817418,264.84,-8845.76,-112.01
21,2029,0.512024,0.022355,0.757912,579.83,-8015.77,-486.02
22,2139,0.562569,0.023566,0.696914,451.83,-8200.77,-517.02
23,2239,0.610640,0.012126,0.635965,1763.82,-10949.78,1326.97
24,2339,0.670709,0.006027,0.548069,2652.82,-11830.78,246.97
25,2439,0.653488,0.018513,0.467754,-1321.16,5.24,-1443.01
26,2539,0.705061,0.015705,0.411296,-614.16,280.24,-562.01
27,2649,0.750326,0.022638,0.352174,-420.17,-2394.77,-1781.02
28,2749,0.781349,0.025986,0.309740,-26.15,-308.75,-112.00
29,2849,0.815171,0.029985,0.264277,-131.17,-678.77,-77.02
30,2949,0.845513,0.043455,0.222228,841.84,-1424.76,-81.01
31,3059,0.871322,0.043973,0.186596,56.83,-184.77,-13.02
32,3159,0.891593,0.044341,0.157114,107.85,-27.75,-0.00
33,3259,0.908439,0.046026,0.131396,28.83,93.23,5.98
34,3359,0.922154,0.046983,0.111513,37.84,127.24,-1.01
35,3469,0.934526,0.047869,0.093770,135.84,19.24,3.99
36,3569,0.944291,0.048238,0.079311,5.85,11.25,4.00
37,3669,0.952280,0.048277,0.066673,-3.17,1.23,-8.02
38,3769,0.959199,0.047889,0.056809,-3.17,31.23,-4.02
39,3869,0.964311,0.047559,0.048846,26.83,-8.77,-1.02
40,3979,0.969737,0.048157,0.040430,30.85,-25.75,-1.00
41,4079,0.974294,0.048282,0.033917,-4.15,29.25,-2.00
42,4189,0.978131,0.048662,0.028509,-11.16,1.24,7.99
43,4289,0.981484,0.048765,0.023675,5.84,-11.76,-5.01
44,4389,0.983802,0.048469,0.019712,5.83,-22.77,-4.02
45,4489,0.986322,0.048949,0.016123,10.84,-9.76,-4.01
46,4589,0.988025,0.048515,0.012835,16.83,-53.77,-6.02
47,4699,0.990388,0.049208,0.009326,17.84,2.24,2.99
48,4799,0.991847,0.049596,0.006783,12.84,21.24,3.99
49,4899,0.993032,0.049467,0.005335,19.83,19.23,2.98
50,4999,0.994205,0.049413,0.003464,29.84,19.24,-5.01
1,0,0.007561,-0.000105,1.001620,-14.18,-77.78,-322.03
2,99,0.008989,-0.002941,1.000563,0.83,-29.77,-80.02
3,199,0.011521,-0.002018,1.000433,-7.17,-30.77,52.98
4,299,0.016127,0.002336,1.001018,-9.17,5.23,-37.02
5,399,0.019859,0.003328,1.000197,0.83,-14.77,20.98
6,499,0.022921,0.005122,0.999536,1.82,-19.78,19.97
7,599,0.019262,0.004414,1.000072,-3.18,0.22,-18.03
8,699,0.022890,0.006723,0.997507,-63.18,6.22,90.97
9,799,0.019785,0.006471,0.998604,-5.16,-14.76,97.99
10,899,0.020148,0.005322,0.997926,7.83,-8.77,65.98
11,999,0.023332,0.003467,0.997221,-0.18,35.22,-127.03
12,1109,0.023292,0.006632,0.997647,-47.16,76.24,-553.01
13,1209,0.023788,0.006027,0.998009,-10.18,-16.78,-20.03
14,1309,0.027396,0.006465,0.998079,34.82,-3.78,393.97
15,1419,0.028046,0.004987,0.997717,-29.19,1.21,-107.04
16,1519,0.027207,0.002523,1.003580,-76.17,-191.77,-1100.02
17,1619,0.024535,0.005299,1.006311,-28.18,-1859.78,329.97
18,1719,0.020688,0.010607,0.997153,-112.17,-4307.77,-531.02
19,1829,0.030291,0.010852,0.989258,-273.17,-5798.77,-1274.02
20,1929,0.048379,0.015016,0.969162,-789.16,-5613.76,-4018.01
21,2029,0.074720,0.019177,0.971361,-90.19,-5649.79,-547.04
22,2139,0.135856,0.019620,0.955616,866.83,-7446.77,1243.98
23,2239,0.190037,0.015913,0.935147,-138.17,-7263.77,-643.02
24,2339,0.249475,0.016424,0.914653,-6.19,-5963.79,-441.04
25,2439,0.300584,0.012848,0.891265,89.84,-6305.76,-170.01
26,2539,0.353182,0.009956,0.862375,160.82,-7310.78,176.97
27,2649,0.414077,0.011123,0.827730,-535.17,-7722.77,-385.02
28,2749,0.473198,0.014458,0.774662,822.83,-8737.77,148.98
29,2849,0.529109,0.016194,0.719775,-1971.18,-9388.78,-2144.03
30,2949,0.583152,0.012726,0.665413,743.82,-7632.78,854.97
31,3059,0.637621,0.006996,0.597874,2046.83,-8542.77,966.98
32,3159,0.689102,0.025800,0.515032,2617.84,-7494.76,-86.01
33,3259,0.727313,0.013165,0.458935,-1790.16,-1899.76,-1593.01
34,3359,0.768599,0.008925,0.385673,-90.18,486.22,-154.03
35,3469,0.797962,0.017222,0.326842,-549.17,-2329.77,75.98
36,3569,0.827021,0.016439,0.271398,670.83,-3595.77,272.98
37,3669,0.846265,0.023811,0.213046,898.83,-6352.77,370.98
38,3769,0.881940,0.026067,0.132539,492.83,-4501.77,140.98
39,3879,0.898073,0.027326,0.080953,82.83,81.23,23.98
40,3979,0.912225,0.026436,0.036428,-84.19,-637.79,36.96
41,4079,0.923303,0.026925,-0.002535,15.83,-107.77,-2.02
42,4189,0.933616,0.028330,-0.037741,-59.17,-389.77,20.98
43,4289,0.940606,0.028205,-0.067026,-52.19,-157.79,24.96
44,4389,0.946803,0.027989,-0.091570,-17.18,-8.78,8.97
45,4489,0.952749,0.027018,-0.112542,14.82,166.22,17.97
46,4589,0.956557,0.027127,-0.129892,64.82,298.22,-20.03
47,4699,0.959593,0.027274,-0.143358,50.82,337.22,-29.03
48,4799,0.963364,0.026631,-0.154219,21.83,644.23,-14.02
49,4899,0.966972,0.027109,-0.163889,5.82,27.22,7.97
50,4999,0.968959,0.027845,-0.170699,6.82,-53.78,-8.03
1,0,0.000255,-0.001734,1.000430,179.83,50.23,-230.02
2,99,0.012355,-0.013371,1.015261,135.82,83.22,-634.03
3,199,0.014932,-0.009218,1.004577,-71.17,-57.77,-833.02
4,299,0.020198,-0.008746,1.001940,6.83,-26.77,152.98
5,399,0.020060,-0.006367,1.001548,-22.18,27.22,-120.03
6,499,0.021810,-0.005425,1.000648,7.83,1.23,-101.02
7,599,0.021430,-0.004478,1.000175,5.82,4.22,11.97
8,699,0.020961,-0.004149,0.999462,9.82,-14.78,113.97
9,799,0.022247,-0.003247,0.999296,3.83,-8.77,92.98
10,899,0.021160,-0.003213,1.000381,5.82,-72.78,235.97
11,999,0.018845,-0.000511,0.999308,-11.18,-154.78,-257.03
12,1109,0.020320,0.004167,0.999604,5.83,-77.77,-177.02
13,1209,0.032230,0.009571,0.991451,-161.18,-146.78,-433.03
14,1309,0.037465,0.008177,0.990911,-23.18,9.22,-2465.03
15,1419,0.039644,0.009574,0.998436,-223.18,-62.78,-1669.03
16,1519,0.019963,0.016877,1.003129,132.82,-3527.78,-494.03
17,1619,0.033795,0.010249,0.995711,65.83,-5986.77,-314.02
18,1719,0.066590,0.012470,0.986915,-313.18,-3597.78,-1404.03
19,1829,0.084377,0.015310,0.986800,-298.18,-2544.78,-1291.03
20,1929,0.108743,0.012012,0.981392,58.83,-4113.77,279.98
21,2029,0.146520,0.010490,0.973242,27.83,-3679.77,13.98
22,2139,0.183372,0.009764,0.964045,29.82,-3479.78,128.97
23,2239,0.220556,0.008927,0.953627,7.82,-3498.78,-113.03
24,2339,0.254451,0.008600,0.943087,39.82,-3859.78,-209.03
25,2439,0.284892,0.012313,0.928690,46.82,-5248.78,-141.03
26,2539,0.304321,0.006480,0.912644,325.82,-8861.79,344.97
27,2649,0.356834,0.007545,0.871411,1189.83,-10488.77,873.98
28,2749,0.425604,0.009806,0.816881,1362.83,-11539.77,596.98
29,2849,0.503157,0.013522,0.754526,1174.84,-9825.76,378.99
30,2949,0.579257,0.012616,0.686730,-787.17,-8184.77,821.98
31,3059,0.666116,0.006224,0.613063,1105.82,-2522.78,1596.97
32,3159,0.703929,0.011814,0.557478,558.83,-409.77,-410.02
33,3259,0.711424,0.016676,0.493165,528.83,-9664.77,-21.02
34,3359,0.875669,-0.012170,0.422843,2367.82,-12555.78,-8994.03
35,3469,0.897412,-0.011218,0.375319,-642.17,-161.77,-143.02
36,3569,0.913329,-0.004055,0.317181,-60.18,142.22,0.97
37,3669,0.928215,0.002802,0.267819,-2.17,-0.77,5.98
38,3769,0.939640,0.009052,0.227325,18.83,-175.77,1.98
39,3879,0.947759,0.012991,0.192046,39.82,-196.78,-26.03
40,3979,0.954550,0.016339,0.162534,-19.17,-123.77,-22.02
41,4079,0.963637,0.020888,0.134080,-388.17,292.23,-5.02
42,4189,0.969164,0.023747,0.113556,-33.17,172.23,3.98
43,4289,0.973623,0.026617,0.097246,-9.18,66.22,-2.03
44,4389,0.978915,0.028215,0.081313,-6.16,5.24,-7.01
45,4489,0.981857,0.029279,0.067880,-50.17,-7.77,-17.02
46,4589,0.984870,0.029708,0.056169,-17.18,11.22,-15.03
47,4699,0.987797,0.030567,0.045043,10.82,-44.78,-7.03
48,4799,0.989425,0.031828,0.037179,19.82,-89.78,-4.03
49,4899,0.991578,0.033028,0.030641,16.84,-52.76,-12.01
50,4999,0.993133,0.033609,0.024955,6.83,0.23,-23.02
1,0,0.004705,0.000390,0.999954,-1.17,-23.77,179.98
2,99,0.012512,0.003010,0.999091,3.83,5.23,-21.02
3,199,0.015486,0.002142,0.998669,12.83,5.23,5.98
4,299,0.018545,0.004261,0.998951,-0.17,-6.77,41.98
5,399,0.019425,0.003572,0.999338,7.84,40.24,-56.01
6,499,0.022955,0.004323,0.999135,-12.17,15.23,-12.02
7,599,0.024454,0.004193,0.999677,-17.17,24.23,-76.02
8,699,0.026644,0.004411,0.999496,-30.18,2.22,-148.03
9,799,0.029109,0.004011,0.999654,-27.18,9.22,-107.03
10,899,0.028532,0.003597,1.000722,16.83,-44.77,-15.02
11,999,0.032033,0.003630,1.000074,15.82,-18.78,75.97
12,1109,0.032316,0.005416,1.000511,-17.19,-43.79,-210.04
13,1209,0.028328,0.003913,1.002842,-6.18,-63.78,-1292.03
14,1309,0.026000,0.006480,1.002114,-35.18,-740.78,-591.03
15,1419,0.021384,0.007839,1.001989,-11.17,-1587.77,-443.02
16,1519,0.019823,0.008426,1.003860,50.82,-3644.78,-330.03
17,1619,0.026644,0.007459,1.003968,60.81,-6588.79,-999.04
18,1719,0.060055,0.010264,0.993421,-24.17,-7067.77,-840.02
19,1829,0.098652,0.014644,0.981124,39.83,-5160.77,-285.02
20,1929,0.144150,0.013624,0.967869,126.83,-4405.77,462.98
21,2029,0.189012,0.011384,0.956164,1.84,-3506.76,-523.01
22,2139,0.233535,0.011239,0.942003,123.84,-3244.76,540.99
23,2239,0.276195,0.011645,0.927897,58.82,-3074.78,124.97
24,2339,0.314983,0.010984,0.912482,61.83,-3249.77,98.98
25,2439,0.349272,0.011282,0.895883,51.84,-3851.76,-168.01
26,2539,0.390538,0.009156,0.875731,152.83,-4261.77,330.98
27,2649,0.427922,0.010754,0.853347,263.83,-4687.77,231.98
28,2749,0.470537,0.009603,0.826629,181.82,-5322.78,-36.03
29,2849,0.509178,0.007417,0.798701,537.82,-6565.78,596.97
30,2949,0.554455,0.008489,0.756176,555.83,-8203.77,244.98
31,3059,0.603982,0.011432,0.699888,66.82,-8909.78,178.97
32,3159,0.658037,0.009319,0.637174,138.82,-7713.78,-83.03
33,3259,0.700321,0.007725,0.570648,665.82,-6341.78,-84.03
34,3359,0.775521,0.024113,0.486378,231.84,-5354.76,1849.99
35,3469,0.795166,0.022149,0.425791,-457.17,-1184.77,-261.02
36,3569,0.831182,0.004257,0.362133,-121.16,-821.76,-428.01
37,3669,0.863223,0.005436,0.306815,104.83,-725.77,-1125.02
38,3769,0.877110,0.003253,0.273802,156.83,-3124.77,-2414.02
39,3879,0.899827,0.005517,0.223256,177.83,600.23,-14.02
40,3979,0.917727,0.011964,0.185712,188.84,-729.76,41.99
41,4079,0.929920,0.017224,0.156491,209.82,-150.78,1.97
42,4189,0.940706,0.021603,0.130555,101.84,-396.76,21.99
43,4289,0.949361,0.026205,0.107777,45.83,-396.77,30.98
44,4389,0.958128,0.028432,0.087005,-16.16,-243.76,17.99
45,4489,0.964224,0.031130,0.069917,-5.17,22.23,3.98
46,4589,0.969809,0.032929,0.055081,38.83,-102.77,4.98
47,4699,0.974923,0.034624,0.042397,35.83,-59.77,-4.02
48,4799,0.979031,0.036430,0.031506,27.84,-97.76,7.99
49,4899,0.982138,0.037471,0.022138,37.82,-109.78,7.97
50,4999,0.984908,0.038374,0.013883,-11.17,-105.77,2.98
1,0,0.005785,0.001397,0.999863,11.84,4.24,5.99
2,99,0.010555,0.002346,0.999545,9.82,6.22,6.97
3,199,0.013311,0.002201,0.999128,4.83,7.23,47.98
4,299,0.016311,0.002901,0.999268,-0.17,3.23,-11.02
5,399,0.019009,0.003075,0.999900,2.82,4.22,-36.03
6,499,0.020679,0.003827,0.999851,4.83,22.23,-109.02
7,599,0.022098,0.003039,1.000047,3.82,-5.78,40.97
8,699,0.025172,0.002698,1.000214,-16.18,-3.78,-14.03
9,799,0.019948,0.007004,0.998433,-54.18,84.22,-756.03
10,899,0.016589,0.005830,0.998091,-58.18,-56.78,-529.03
11,999,-0.004559,0.005107,1.003898,-133.17,-2307.77,-2028.02
12,1109,0.007201,0.004200,1.001455,283.84,-8690.76,157.99
13,1209,0.043748,0.005626,0.988044,267.82,-9469.78,302.97
14,1309,0.105958,0.006361,0.973459,85.82,-6074.78,-86.03
15,1419,0.156622,0.008580,0.964192,-49.17,-4780.77,-443.02
16,1519,0.208750,0.007591,0.951280,35.82,-4239.78,308.97
17,1619,0.258772,0.008526,0.935068,47.83,-3908.77,101.98
18,1719,0.304238,0.007765,0.913543,181.82,-4813.78,696.97
19,1829,0.352058,0.010560,0.888673,-26.18,-3748.78,-379.03
20,1929,0.393529,0.011655,0.865574,-56.18,-3967.78,-332.03
21,2029,0.436708,0.010992,0.839623,9.83,-4289.77,76.98
22,2139,0.481760,0.010960,0.810716,67.83,-4986.77,72.98
23,2239,0.518552,0.011903,0.772816,555.83,-7051.77,208.98
24,2339,0.559768,0.011404,0.731188,891.83,-8948.77,468.98
25,2439,0.622506,0.008087,0.678172,381.82,-8905.78,243.97
26,2539,0.685610,0.007154,0.610843,1086.82,-6266.78,344.97
27,2649,0.724949,0.006800,0.547735,-347.17,-6169.77,598.98
28,2749,0.760932,0.000072,0.483125,146.82,-7016.78,294.97
29,2849,0.791718,0.013506,0.416818,-123.18,305.22,826.97
30,2949,0.822062,0.012437,0.364705,-11.18,-829.78,-316.03
31,3059,0.842892,0.011547,0.320647,40.83,-558.77,-298.02
32,3159,0.868453,0.019690,0.268091,2012.82,-3383.78,-2565.03
33,3259,0.880786,0.023589,0.237042,234.83,65.23,-13.02
34,3359,0.897422,0.027490,0.201953,250.83,51.23,13.98
35,3469,0.913082,0.030202,0.170625,-2.17,-4.77,6.98
36,3569,0.927217,0.033568,0.142972,-77.16,-37.76,-6.01
37,3669,0.938353,0.035844,0.120070,-191.17,12.23,-13.02
38,3769,0.948057,0.037468,0.101318,-20.16,-85.76,6.99
39,3879,0.954291,0.037107,0.087411,-326.18,82.22,-27.03
40,3979,0.960377,0.038449,0.073943,-9.18,16.22,-16.03
41,4079,0.965953,0.039883,0.062769,-1.17,0.23,-0.02
42,4189,0.970839,0.041047,0.052758,-5.18,7.22,3.97
43,4289,0.974571,0.041524,0.044671,-0.16,-12.76,-2.01
44,4389,0.977780,0.042057,0.037357,-24.16,7.24,-1.01
45,4489,0.980783,0.042986,0.031360,-36.17,1.23,6.98
46,4589,0.983975,0.041872,0.025328,-25.17,-36.77,-5.02
47,4699,0.986268,0.042573,0.021062,6.83,-96.77,0.98
48,4799,0.987906,0.042344,0.016667,111.83,-48.77,2.98
49,4899,0.990158,0.042919,0.011155,46.82,-77.78,7.97
50,4999,0.991486,0.043975,0.006726,25.83,36.23,-8.02
1,0,0.005675,0.001360,1.000028,-15.17,4.23,-91.02
2,99,0.011487,0.001600,1.000124,-3.20,-13.80,73.95
3,199,0.014834,0.002922,0.999455,-1.18,6.22,-20.03
4,299,0.019364,0.003312,0.999839,-5.18,-5.78,107.97
5,399,0.020266,0.003369,0.999176,-19.19,13.21,-52.04
6,499,0.023395,0.003180,0.999620,-51.19,7.21,-185.04
7,599,0.031219,0.006700,0.999320,-105.18,-10.78,-593.03
8,699,0.036111,0.006762,1.000567,-138.18,93.22,-1600.03
9,799,0.008098,0.006595,1.008767,-79.18,-3119.78,-2692.03
10,899,0.005325,0.003340,1.003891,88.82,-7985.78,-1059.03
11,999,0.057918,0.001819,0.992513,-209.18,-8783.78,-768.03
12,1109,0.106504,0.003675,0.981835,-131.19,-5751.79,-285.04
13,1209,0.157855,0.004795,0.966826,-115.18,-3660.78,-336.03
14,1309,0.196742,0.005234,0.956027,-225.18,-2693.78,-657.03
15,1419,0.234612,0.004600,0.944999,28.81,-3144.79,-91.04
16,1519,0.277679,0.003494,0.930846,91.84,-4403.76,209.99
17,1619,0.319430,0.005594,0.912042,52.83,-5307.77,-71.02
18,1719,0.362078,0.005602,0.887305,210.82,-6638.78,190.97
19,1829,0.410963,0.006030,0.847401,612.82,-8001.78,285.97
20,1929,0.464051,0.002036,0.804327,831.81,-8356.79,745.96
21,2029,0.510732,0.005013,0.753633,985.83,-9312.77,443.98
22,2139,0.576632,-0.000568,0.681759,1631.82,-9621.78,556.97
23,2239,0.635246,0.002891,0.615174,791.82,-8706.78,752.97
24,2339,0.693767,0.002902,0.537573,1160.82,-8737.78,25.97
25,2439,0.714212,-0.007196,0.454200,1065.82,451.22,-3026.03
26,2539,0.782238,-0.020815,0.382765,1556.83,-1887.77,-1432.02
27,2649,0.816787,-0.001410,0.319006,472.83,-3550.77,-2415.02
28,2749,0.841924,0.006644,0.273453,129.83,258.23,4.98
29,2849,0.867392,0.013343,0.231236,9.84,-173.76,20.99
30,2949,0.887044,0.016492,0.196102,434.81,-66.79,-5.04
31,3059,0.904535,0.021329,0.164883,7.82,-76.78,2.97
32,3159,0.919257,0.025349,0.138988,-20.17,-33.77,-5.02
33,3259,0.931477,0.028656,0.116208,-6.17,-214.77,6.98
34,3359,0.941626,0.031303,0.097175,-17.16,58.24,-5.01
35,3469,0.951168,0.033332,0.080868,1.83,-28.77,5.98
36,3569,0.958931,0.035186,0.066788,-10.17,-47.77,12.98
37,3669,0.965750,0.036413,0.054893,-12.17,-110.77,6.98
38,3769,0.970355,0.037896,0.044746,-10.18,-7.78,-7.03
39,3869,0.974745,0.038992,0.036523,2.83,33.23,-1.02
40,3979,0.978716,0.039795,0.028692,-18.16,88.24,-12.01
41,4079,0.982108,0.039745,0.022090,-79.17,30.23,-9.02
42,4189,0.984919,0.040911,0.016149,-4.19,12.21,-6.04
43,4289,0.986941,0.041993,0.011483,-48.18,72.22,-11.03
44,4389,0.990235,0.042694,0.007097,-11.19,-137.79,8.96
45,4489,0.991441,0.043252,0.004411,0.80,-5.80,4.95
46,4589,0.992174,0.043270,0.002715,-11.19,46.21,-6.04
47,4699,0.993346,0.043760,0.000101,-8.19,44.21,-4.04
48,4799,0.994764,0.044123,-0.001553,1.83,5.23,-3.02
49,4899,0.994797,0.044193,-0.003087,-7.18,-2.78,-1.03
50,4999,0.995173,0.044380,-0.003951,0.82,-14.78,-1.03
1,0,0.006829,0.002843,1.000504,-20.17,8.23,-113.02
2,99,0.011149,0.005223,1.000437,-40.18,-9.78,-175.03
3,199,0.018924,0.002888,1.003823,58.82,281.22,-2735.03
4,299,0.026466,-0.000818,1.009081,-281.18,-83.78,-1800.03
5,399,0.019968,-0.000781,1.011592,180.82,308.22,-2084.03
6,499,0.024057,-0.004871,1.014989,-205.18,-35.78,-1552.03
7,599,0.016566,-0.000491,1.014013,28.83,-1533.77,-279.02
8,699,0.016533,-0.000394,1.011792,26.83,-2767.77,-166.02
9,799,0.023226,0.001886,1.008403,59.83,-3712.77,-197.02
10,899,0.037520,0.004336,1.003471,107.82,-5331.78,-152.03
11,999,0.069409,0.004368,0.996222,100.83,-5879.77,-84.02
12,1109,0.112353,0.003150,0.983394,-902.19,-5346.79,-2479.04
13,1209,0.153506,0.008982,0.972930,153.83,-5926.77,138.98
14,1309,0.200645,0.004911,0.954954,170.82,-6177.78,511.97
15,1419,0.246883,0.005040,0.935920,384.81,-7277.79,489.96
16,1519,0.305265,0.005259,0.905258,1313.82,-8659.78,1101.97
17,1619,0.362874,0.005739,0.862276,1362.82,-9781.78,950.97
18,1719,0.434363,0.006568,0.811972,797.83,-9112.77,387.98
19,1829,0.510363,0.008499,0.752991,588.83,-7467.77,746.98
20,1929,0.587213,0.008877,0.689673,685.83,-5341.77,221.98
21,2029,0.646127,0.011048,0.632411,367.83,-3377.77,147.98
22,2139,0.682416,0.011850,0.582529,-106.17,-5548.77,225.98
23,2239,0.737083,-0.002814,0.518816,1130.82,-5735.78,465.97
24,2339,0.787597,0.012500,0.450799,782.83,-4228.77,1119.98
25,2439,0.803673,0.012443,0.402011,-811.18,-644.78,-264.03
26,2539,0.828470,0.004997,0.327876,1565.83,-2332.77,-2645.02
27,2649,0.904405,0.018571,0.299761,1459.83,-6496.77,-802.02
28,2749,0.928905,0.009583,0.228073,-593.18,-337.78,-19.03
29,2849,0.937738,0.016024,0.181969,-64.16,-245.76,14.99
30,2949,0.946490,0.018881,0.141499,-54.18,-374.78,26.97
31,3059,0.952794,0.022939,0.106514,-93.16,-358.76,12.99
32,3159,0.960606,0.025564,0.076374,-54.17,-262.77,26.98
33,3259,0.967283,0.027155,0.050041,-98.15,-400.75,39.00
34,3359,0.971768,0.028946,0.027419,-15.18,-35.78,4.97
35,3469,0.975855,0.029900,0.007220,-54.18,-213.78,19.97
36,3569,0.979384,0.031206,-0.009930,-39.18,-169.78,7.97
37,3669,0.982163,0.032023,-0.025424,-32.19,-117.79,14.96
38,3769,0.985734,0.032571,-0.038978,107.81,603.21,-46.04
39,3879,0.991681,0.036077,-0.047771,-36.17,1094.23,-43.02
40,3979,0.990328,0.032557,-0.047334,-112.17,667.23,-53.02
41,4079,0.992345,0.034270,-0.052969,39.82,-378.78,22.97
42,4189,0.992576,0.034994,-0.055891,-4.18,140.22,-3.03
43,4289,0.992534,0.036488,-0.059199,-2.18,-169.78,27.97
44,4389,0.992517,0.036787,-0.062322,27.82,-291.78,12.97
45,4489,0.993254,0.036804,-0.066404,7.82,-58.78,3.97
46,4589,0.994319,0.036891,-0.069527,3.82,37.22,-9.03
47,4699,0.994639,0.037551,-0.072071,-15.19,-452.79,47.96
48,4799,0.994874,0.037728,-0.075167,1.82,116.22,-27.03
49,4899,0.995403,0.037823,-0.077982,9.82,-98.78,11.97
50,4999,0.995761,0.037721,-0.080485,-2.20,75.20,-3.05
1,0,0.004979,-0.000068,1.000265,-0.19,-15.79,20.96
2,99,0.010181,0.000679,1.000436,-9.19,-4.79,29.96
3,199,0.013633,0.001424,1.000380,-12.18,-8.78,-5.03
4,299,0.015486,0.001564,1.000368,-6.18,-13.78,16.97
5,399,0.020064,0.001388,1.000542,-12.21,6.19,-123.06
6,499,0.018847,-0.001269,0.999591,12.82,-2.78,166.97
7,599,0.019314,0.002186,1.000229,-42.20,23.20,-347.05
8,699,0.023428,0.002522,0.999709,-6.18,-23.78,20.97
9,799,0.026706,0.003027,0.999231,-4.18,-4.78,-25.03
10,899,0.027478,0.003421,0.999593,-1.18,13.22,-13.03
11,999,0.030257,0.003315,0.999517,-4.19,-5.79,54.96
12,1109,0.030698,0.004636,0.999232,-35.18,12.22,-181.03
13,1209,0.027978,0.004147,1.000712,-35.17,-276.77,-177.02
14,1309,0.024146,0.004427,1.004661,-39.18,-641.78,-249.03
15,1419,0.024789,0.005324,1.001847,2.82,-2184.78,-8.03
16,1519,0.033447,0.005702,1.001707,14.82,-3177.78,-453.03
17,1619,0.041575,0.002233,1.007942,47.81,-4235.79,-257.04
18,1719,0.060331,0.005272,1.000040,78.81,-6387.79,-232.04
19,1829,0.105057,0.003772,0.988708,64.81,-6017.79,-642.04
20,1929,0.142635,0.011084,0.970251,-288.20,-5618.80,-1030.05
21,2029,0.194150,0.008383,0.961575,-198.20,-5722.80,-556.05
22,2139,0.242296,0.010627,0.942024,-52.20,-5528.80,-368.05
23,2239,0.286846,0.011620,0.919620,-5.18,-6597.78,47.97
24,2339,0.323707,0.014807,0.887228,-96.18,-9781.78,-86.03
25,2439,0.389883,0.009698,0.835745,425.81,-13186.79,1056.96
26,2539,0.477133,0.005978,0.771641,1627.83,-10852.77,691.98
27,2649,0.568067,0.000051,0.698330,1149.82,-6718.78,99.97
28,2749,0.644190,0.008526,0.626182,172.82,-3221.78,1123.97
29,2849,0.675166,0.010840,0.576850,59.80,-3040.80,-853.05
30,2949,0.701477,0.004294,0.526659,337.81,-9557.79,308.96
31,3059,0.793312,0.022295,0.410444,3385.82,4831.22,-2075.03
32,3159,0.825540,0.032432,0.348374,-240.19,-1333.79,-734.04
33,3259,0.841398,0.024880,0.315573,92.80,-5415.80,-3785.05
34,3359,0.842151,0.040708,0.223183,-2185.21,-8442.81,883.94
35,3469,0.864106,0.040228,0.172027,515.80,112.20,-32.05
36,3569,0.884067,0.039417,0.127829,61.80,-42.80,-23.05
37,3669,0.900722,0.038123,0.090024,19.81,-40.79,-9.04
38,3769,0.914770,0.037811,0.058072,-12.18,-29.78,-9.03
39,3879,0.927480,0.037711,0.030895,-21.18,-27.78,9.97
40,3979,0.937459,0.036490,0.007666,-24.18,-32.78,1.97
41,4079,0.945703,0.036148,-0.011932,-42.19,-93.79,3.96
42,4189,0.952472,0.035601,-0.028737,-46.21,25.19,20.94
43,4289,0.959013,0.034715,-0.043442,-16.20,-33.80,-14.05
44,4389,0.964427,0.034786,-0.056436,0.81,-6.79,5.96
45,4489,0.969175,0.034590,-0.067151,-17.18,-7.78,-4.03
46,4589,0.974621,0.033435,-0.076350,-184.19,-92.79,-11.04
47,4699,0.977401,0.033789,-0.083089,-17.18,-3.78,-8.03
48,4799,0.979782,0.032992,-0.089165,-71.19,21.21,11.96
49,4899,0.982246,0.033578,-0.094403,-12.18,8.22,-12.03
50,4999,0.984395,0.033344,-0.098837,0.82,9.22,-7.03
1,0,0.004704,-0.000050,1.000229,3.82,-13.78,14.97
2,99,0.008904,0.001006,0.999801,0.81,7.21,-72.04
3,199,0.012895,0.001592,0.999547,-22.19,-15.79,-65.04
4,299,0.015958,0.002567,0.999660,-25.20,23.20,-220.05
5,399,0.025775,-0.003179,1.009864,-55.19,-6.79,-93.04
6,499,0.026815,-0.001891,1.008339,-26.18,8.22,-84.03
7,599,0.029291,-0.001823,1.007024,3.81,10.21,23.96
8,699,0.031286,0.000159,1.006291,7.82,-5.78,128.97
9,799,0.033275,0.002667,1.004019,15.82,-6.78,2.97
10,899,0.032274,0.002455,1.003755,-11.17,20.23,-184.02
11,999,0.026479,0.001231,1.006039,-4.19,-1056.79,-363.04
12,1109,0.032979,0.002150,1.003110,55.81,-2636.79,80.96
13,1209,0.045261,0.000605,1.004941,-24.19,-2713.79,-817.04
14,1309,0.049309,0.003357,0.997196,-50.20,-3587.80,-1087.05
15,1419,0.069634,0.001430,0.994623,108.83,-5181.77,-45.02
16,1519,0.102143,0.005597,0.986008,35.81,-5698.79,-261.04
17,1619,0.145798,0.004213,0.975354,105.81,-4548.79,357.96
18,1719,0.183948,0.006002,0.965089,95.80,-4088.80,-23.05
19,1829,0.222583,0.006865,0.952903,98.81,-4255.79,175.96
20,1929,0.262235,0.008110,0.938077,120.80,-4979.80,286.95
21,2029,0.305057,0.007503,0.917785,121.82,-5533.78,278.97
22,2139,0.354127,0.009806,0.891838,158.80,-6307.80,917.95
23,2239,0.405138,0.007113,0.860464,47.80,-7395.80,51.95
24,2339,0.453185,0.007058,0.826655,94.81,-6956.79,-403.04
25,2439,0.501276,0.006956,0.776952,598.80,-8379.80,393.95
26,2539,0.558102,0.014835,0.711193,-403.18,-10061.78,261.97
27,2649,0.625025,0.012468,0.649347,-1048.20,-8852.80,-113.05
28,2749,0.671254,0.013697,0.580409,258.82,-6730.78,-132.03
29,2849,0.713514,0.010109,0.507108,149.79,-8941.81,40.94
30,2949,0.757932,0.041538,0.407503,-1711.19,3012.21,2462.96
31,3059,0.795376,0.032602,0.347888,-436.19,-436.79,-694.04
32,3159,0.788073,0.074884,0.261821,3308.81,-8198.79,-364.04
33,3259,0.853515,0.071914,0.162809,-1466.20,-4166.80,368.95
34,3359,0.873325,0.069664,0.121167,463.80,956.20,-60.05
35,3469,0.892929,0.066251,0.084507,-25.18,-93.78,-12.03
36,3569,0.908731,0.063404,0.053822,-24.19,-123.79,4.96
37,3669,0.922017,0.060710,0.027923,-12.20,-131.80,4.95
38,3769,0.933969,0.058420,0.005104,-12.19,-48.79,8.96
39,3879,0.943615,0.057022,-0.014733,-32.19,-113.79,-7.04
40,3979,0.951558,0.055432,-0.031154,-33.19,-141.79,-7.04
41,4079,0.958585,0.053750,-0.046174,-20.18,-135.78,0.97
42,4189,0.964026,0.053053,-0.058556,-2.18,-46.78,-1.03
43,4289,0.968450,0.052608,-0.068734,-9.18,-45.78,-5.03
44,4389,0.972320,0.051697,-0.077787,-18.20,-99.80,7.95
45,4489,0.976324,0.050594,-0.086783,-8.19,-76.79,2.96
46,4589,0.979654,0.049950,-0.093934,3.83,-27.77,5.98
47,4699,0.981990,0.048761,-0.099446,-16.18,-42.78,-13.03
48,4799,0.983628,0.048556,-0.104625,-18.19,-107.79,8.96
49,4899,0.984836,0.048235,-0.109247,-26.21,-73.81,-25.06
50,4999,0.986487,0.047963,-0.113963,-28.18,-40.78,3.97
1,0,0.005070,0.001506,0.999295,-1.19,8.21,-32.04
2,99,0.008776,0.001853,0.998531,-14.19,-6.79,-54.04
3,199,0.012566,0.002550,0.998193,-1.18,-8.78,65.97
4,299,0.015367,0.003655,0.997832,-6.20,3.20,-40.05
5,399,0.020036,0.004155,0.998257,-2.20,-5.80,10.95
6,499,0.021038,0.003848,0.997978,-21.20,-17.80,90.95
7,599,0.023502,0.003806,0.998712,9.81,5.21,11.96
8,699,0.025670,0.004009,0.998475,-14.19,2.21,-86.04
9,799,0.027567,0.004017,0.998932,8.80,-19.80,23.95
10,899,0.029216,0.004627,0.998991,-7.20,-30.80,154.95
11,999,0.033437,0.005861,0.998602,-25.19,-50.79,-52.04
12,1109,0.032577,0.006195,0.999920,-18.18,53.22,-189.03
13,1209,0.033749,0.004446,0.999391,-30.21,5.19,-78.06
14,1309,0.034269,0.005780,0.999821,-27.19,3.21,-273.04
15,1419,0.031452,0.004643,1.001505,-24.19,-731.79,-168.04
16,1519,0.026055,0.005489,1.004126,-0.21,-2448.81,-162.06
17,1619,0.036244,0.005549,0.999177,-46.19,-3744.79,-694.04
18,1719,0.043586,0.005308,1.000371,10.82,-4910.78,-679.03
19,1829,0.065519,0.005011,0.995435,139.81,-6187.79,-169.04
20,1929,0.108076,0.004648,0.984209,110.80,-6520.80,133.95
21,2029,0.153936,0.008186,0.970327,182.82,-6188.78,514.97
22,2139,0.207144,0.008757,0.953803,4.81,-5219.79,-355.04
23,2239,0.256161,0.008272,0.934960,69.82,-4885.78,87.97
24,2339,0.300901,0.010570,0.913964,78.81,-5872.79,79.96
25,2439,0.349349,0.007653,0.886284,182.81,-7566.79,502.96
26,2539,0.402725,0.009805,0.844811,668.81,-9322.79,876.96
27,2649,0.472008,0.006307,0.797182,-531.19,-10087.79,-615.04
28,2749,0.549887,0.006849,0.734321,107.81,-7854.79,71.96
29,2849,0.603724,0.013810,0.667981,-307.19,-6037.79,-190.04
30,2949,0.658714,0.006378,0.607490,-191.18,-6040.78,435.97
31,3059,0.702911,0.003485,0.541040,588.81,-6063.79,7.96
32,3159,0.788470,0.004322,0.469433,662.81,-2865.79,1804.96
33,3259,0.762171,0.018620,0.408878,-2210.19,-788.79,-1554.04
34,3359,0.803410,-0.012000,0.349478,-1615.19,-1673.79,-3742.04
35,3469,0.829564,-0.009884,0.304316,221.81,-2665.79,-1780.04
36,3569,0.858991,-0.000926,0.248094,316.81,-1536.79,-17.04
37,3669,0.879720,0.006322,0.208911,104.82,522.22,0.97
38,3769,0.897614,0.012520,0.174215,13.81,-472.79,-7.04
39,3879,0.912897,0.017165,0.144155,112.83,-28.77,-9.02
40,3979,0.924624,0.021498,0.118878,80.81,-620.79,-4.04
41,4079,0.937741,0.025712,0.092285,25.80,-437.80,-5.05
42,4189,0.946804,0.028580,0.072335,-1.18,99.22,-17.03
43,4289,0.955148,0.031549,0.055159,-4.19,75.21,-2.04
44,4389,0.961196,0.033468,0.041291,-2.19,-50.79,-6.04
45,4489,0.967344,0.035520,0.028752,-12.20,-14.80,-13.05
46,4589,0.972149,0.037045,0.017655,-14.20,-29.80,1.95
47,4699,0.975867,0.037920,0.009651,-22.19,60.21,-7.04
48,4799,0.979009,0.039378,0.002096,3.81,-53.79,-10.04
49,4899,0.982724,0.039976,-0.005332,-22.19,171.21,-4.04
50,4999,0.985295,0.041290,-0.010767,21.81,-79.79,1.96
1,0,0.005620,0.000096,0.999918,-12.19,13.21,-34.04
2,99,0.007155,0.001313,1.000159,-15.19,3.21,-89.04
3,199,0.010383,0.002220,0.999887,1.80,-18.80,100.95
4,299,0.012779,0.001415,1.000188,-13.20,-26.80,28.95
5,399,0.014558,0.001830,0.999821,-24.20,-11.80,-13.05
6,499,0.034564,-0.007742,1.004818,30.78,110.18,-592.07
7,599,0.037288,-0.007455,1.003262,14.81,-99.79,-80.04
8,699,0.038284,-0.006771,1.003002,34.80,-32.80,118.95
9,799,0.036202,-0.005073,1.001956,16.81,17.21,-4.04
10,899,0.036446,-0.005516,1.003320,-14.19,-2.79,66.96
11,999,0.035995,-0.004574,1.002318,-20.19,-30.79,-666.04
12,1109,0.031399,-0.001503,1.003334,62.80,-1409.80,-426.05
13,1209,0.033334,-0.000577,1.004985,81.81,-3148.79,260.96
14,1309,0.045891,0.000320,1.001701,161.79,-4449.81,386.94
15,1419,0.072184,0.000093,0.994460,60.79,-4001.81,-359.06
16,1519,0.098872,0.000798,0.990851,-66.20,-2996.80,-488.05
17,1619,0.125787,0.001049,0.985365,62.79,-3484.81,-162.06
18,1719,0.150972,0.001940,0.979348,51.80,-4164.80,-247.05
19,1829,0.180619,0.003887,0.968832,192.81,-5623.79,422.96
20,1929,0.225760,0.006293,0.949456,37.81,-6273.79,490.96
21,2029,0.270959,0.005720,0.930350,26.81,-6287.79,-370.04
22,2139,0.322488,0.006478,0.903379,135.79,-7111.81,464.94
23,2239,0.369785,0.009521,0.867729,-193.21,-8619.81,-350.06
24,2339,0.428482,0.013939,0.820086,-516.18,-10704.79,-189.03
25,2439,0.494780,0.012255,0.761681,-956.19,-11065.79,-457.04
26,2539,0.568144,0.010843,0.696694,60.81,-9234.79,-627.04
27,2649,0.625798,0.008123,0.623510,107.80,-8581.80,-181.05
28,2749,0.666252,0.003082,0.542791,897.80,-9824.80,-47.05
29,2849,0.739951,0.032489,0.438365,-101.19,-1554.79,-607.04
30,2949,0.778243,0.028646,0.378973,274.81,-5925.79,1391.96
31,3059,0.822326,0.019611,0.291228,-1013.20,-3569.80,271.95
32,3159,0.847656,0.023211,0.230102,234.80,-79.80,-22.05
33,3259,0.870323,0.026509,0.175747,-196.19,-712.79,44.96
34,3359,0.888839,0.028836,0.128703,-121.19,-558.79,25.96
35,3469,0.904449,0.030356,0.087965,-136.18,-440.78,24.97
36,3569,0.917645,0.031997,0.051781,-195.20,-700.80,48.95
37,3669,0.929209,0.033061,0.019578,-66.20,-359.80,23.95
38,3769,0.938452,0.034021,-0.008160,-134.21,-645.81,27.94
39,3879,0.945521,0.034946,-0.032562,55.80,-10.80,-1.05
40,3979,0.952391,0.035605,-0.054018,-6.20,-38.80,9.95
41,4079,0.958596,0.035945,-0.072164,11.79,4.19,-9.06
42,4189,0.963083,0.036765,-0.087093,3.79,-8.81,-0.06
43,4289,0.967117,0.037096,-0.099912,14.81,33.21,19.96
44,4389,0.970052,0.037432,-0.110789,-9.18,-23.78,2.97
45,4489,0.973151,0.037370,-0.120254,-20.20,-49.80,-13.05
46,4589,0.975528,0.037848,-0.127787,-25.20,6.20,-7.05
47,4699,0.979142,0.044426,-0.125712,-388.19,-1433.79,274.96
48,4799,0.984777,0.042289,-0.135228,-61.20,-324.80,44.95
49,4899,0.988431,0.041095,-0.145294,209.78,372.18,-13.07
50,4999,1.006424,0.041802,-0.155516,1562.79,2578.19,-307.06
1,0,0.004612,0.001195,0.999771,2.79,1.19,-2.06
2,99,0.008880,0.000910,0.999942,-17.19,0.21,-11.04
3,199,0.013314,0.002078,0.998733,-8.20,-9.80,29.95
4,299,0.016313,0.002650,0.998035,-5.21,-11.81,6.94
5,399,0.018882,0.005278,0.999291,-4.18,-8.78,-9.03
6,499,0.021925,0.006469,0.999626,6.80,10.20,18.95
7,599,0.021491,0.003416,0.999105,-19.20,5.20,-3.05
8,699,0.022769,0.005618,0.999248,-24.21,-12.81,-90.06
9,799,0.024259,0.006171,0.999333,-11.20,29.20,-210.05
10,899,0.023785,0.003877,0.999698,6.80,101.20,-560.05
11,999,0.020764,-0.002688,1.005099,-128.21,-192.81,-3296.06
12,1109,0.009701,0.003634,1.008518,114.80,-3890.80,112.95
13,1209,0.018809,-0.001484,1.007084,155.80,-7254.80,-240.05
14,1309,0.048798,-0.000140,0.997241,231.80,-9494.80,-157.05
15,1419,0.082235,0.000288,0.986861,163.80,-10020.80,-437.05
16,1519,0.159692,-0.003394,0.956687,215.80,-8948.80,961.95
17,1619,0.222730,-0.000317,0.932028,-86.20,-5414.80,-969.05
18,1719,0.271130,0.002079,0.909182,94.80,-6747.80,212.95
19,1829,0.335945,-0.005553,0.873723,1062.80,-8481.80,1156.95
20,1929,0.400596,0.002664,0.824833,990.78,-9291.82,461.93
21,2029,0.458168,0.004118,0.765094,427.81,-12373.79,395.96
22,2139,0.544038,0.004861,0.678299,397.83,-12100.77,549.98
23,2239,0.613528,0.022556,0.584235,1232.80,-13702.80,-686.05
24,2339,0.761914,0.049298,0.452316,1398.80,-5021.80,2901.95
25,2439,0.798926,0.037184,0.415514,-2368.18,1971.22,-409.03
26,2539,0.790816,0.065907,0.305369,1064.81,-10847.79,957.96
27,2649,0.814519,0.060786,0.234560,503.79,1060.19,60.94
28,2749,0.837561,0.059382,0.170912,-783.19,-1965.79,255.96
29,2849,0.858811,0.055240,0.113936,-215.21,-416.81,52.94
30,2949,0.881800,0.049888,0.063475,-449.20,-636.80,114.95
31,3059,0.896306,0.045339,0.021131,-222.20,-398.80,35.95
32,3159,0.908269,0.042919,-0.016160,-182.19,-546.79,41.96
33,3259,0.918328,0.040038,-0.047968,11.79,-22.81,-21.06
34,3359,0.927701,0.038065,-0.075335,-11.21,-33.81,0.94
35,3469,0.937317,0.036809,-0.098706,-71.19,-264.79,1.96
36,3569,0.943989,0.035247,-0.119011,30.79,46.19,11.94
37,3669,0.949330,0.034487,-0.136636,-7.21,7.19,-1.06
38,3769,0.954109,0.033530,-0.150812,2.80,15.20,6.95
39,3879,0.957859,0.032479,-0.163411,2.79,13.19,4.94
40,3979,0.961083,0.032042,-0.173534,-17.21,-24.81,-9.06
41,4079,0.963934,0.031196,-0.182670,-5.20,-3.80,-4.05
42,4189,0.966174,0.030732,-0.190453,-2.21,15.19,8.94
43,4289,0.968572,0.029789,-0.197417,91.80,106.20,-12.05
44,4389,0.969695,0.029390,-0.202696,-31.21,-18.81,-19.06
45,4489,0.971162,0.028611,-0.207458,-11.22,13.18,-16.07
46,4589,0.972702,0.028425,-0.211743,49.79,78.19,5.94
47,4699,0.974158,0.029348,-0.216282,343.79,137.19,-29.06
48,4799,0.974552,0.029271,-0.218365,7.78,19.18,4.93
49,4899,0.975071,0.028584,-0.221252,9.78,35.18,-10.07
50,4999,0.976483,0.028347,-0.222827,-6.20,-0.80,4.95
1,0,0.006095,0.001011,1.000027,-6.21,-20.81,65.94
2,99,0.010177,0.002091,1.000141,-9.23,11.17,-27.08
3,199,0.014526,0.002386,1.000129,10.80,11.20,5.95
4,299,0.018496,0.003296,1.000228,4.78,-10.82,27.93
5,399,0.022018,0.003520,1.000404,-3.22,-9.82,-23.07
6,499,0.024114,0.003674,1.000004,-24.22,28.18,-123.07
7,599,0.025219,0.004189,0.997412,-11.21,4.19,-198.06
8,699,0.025443,0.005121,0.998285,-29.21,27.19,-208.06
9,799,0.024701,0.003643,0.998405,-30.20,39.20,-156.05
10,899,0.027769,0.003834,0.997609,-28.20,21.20,-437.05
11,999,0.029698,0.000352,0.999350,-29.22,12.18,-1095.07
12,1109,0.020023,0.002501,0.999822,-8.21,-2108.81,-1527.06
13,1209,0.022088,0.003869,1.001213,94.78,-4002.82,-149.07
14,1309,0.047081,0.001444,0.999355,139.79,-5351.81,-114.06
15,1419,0.076436,0.003246,0.994260,-292.21,-3465.81,-1736.06
16,1519,0.096572,0.010857,0.988868,175.79,-4981.81,442.94
17,1619,0.136155,0.004802,0.978516,149.80,-6903.80,442.95
18,1719,0.176009,0.007437,0.965690,179.81,-7619.79,105.96
19,1829,0.226454,0.008212,0.942116,134.79,-8857.81,161.94
20,1929,0.294803,0.004549,0.908711,237.79,-8247.81,743.94
21,2029,0.360700,0.003542,0.873268,598.79,-7204.81,126.94
22,2139,0.414496,0.007080,0.827668,1048.79,-8386.81,213.94
23,2239,0.462640,0.011424,0.772429,-51.21,-11612.81,351.94
24,2339,0.544743,0.008140,0.695941,940.79,-13821.81,-128.06
25,2439,0.606877,0.005092,0.618860,1229.80,-10530.80,68.95
26,2539,0.767357,0.006438,0.501192,789.79,437.19,-3915.06
27,2649,0.809905,0.000551,0.425528,-773.22,-2211.82,-1448.07
28,2749,0.788905,0.030704,0.356361,1096.80,-7124.80,379.95
29,2849,0.818443,0.034050,0.295262,-183.21,863.19,120.94
30,2949,0.844868,0.035428,0.241276,-7.22,9.18,3.93
31,3059,0.867715,0.035044,0.196085,49.80,520.20,-28.05
32,3159,0.889075,0.035505,0.156848,-24.20,-71.80,-14.05
33,3259,0.905638,0.036519,0.123845,4.80,25.20,1.95
34,3359,0.919589,0.037162,0.096159,-13.20,-8.80,-5.05
35,3469,0.932106,0.037579,0.072057,10.78,35.18,2.93
36,3569,0.942141,0.038776,0.052102,-40.22,25.18,3.93
37,3669,0.950488,0.039318,0.035360,4.79,-53.81,-22.06
38,3769,0.954672,0.039614,0.022539,-118.19,605.21,-63.04
39,3869,0.960590,0.040085,0.011055,-78.21,-200.81,1.94
40,3979,0.969447,0.039259,-0.001507,-240.20,-471.80,8.95
41,4079,0.973954,0.039655,-0.011545,-256.21,-286.81,-7.06
42,4189,0.975735,0.041639,-0.020443,-596.21,-111.81,8.94
43,4289,0.979885,0.041715,-0.028610,-188.21,145.19,22.94
44,4389,0.982185,0.041944,-0.033996,-21.23,85.17,3.92
45,4489,0.984726,0.041992,-0.038117,-31.23,168.17,1.92
46,4589,0.989047,0.040623,-0.042626,104.79,874.19,-59.06
47,4699,0.995192,0.039148,-0.049627,23.79,-47.81,-33.06
48,4799,1.001898,0.038572,-0.054003,18.77,959.17,-86.08
49,4899,0.990240,0.041067,-0.048659,-495.21,4971.19,-408.06
50,4999,1.002193,0.043590,-0.049829,590.79,-1085.81,118.94
1,0,0.006077,0.001030,0.999862,4.79,-6.81,11.94
2,99,0.010875,0.000861,0.999910,-14.22,0.18,-21.07
3,199,0.013508,0.001103,0.998980,2.79,8.19,-29.06
4,299,0.015763,0.000923,0.998537,-33.23,12.17,-80.08
5,399,0.017223,-0.002159,0.994957,20.78,-53.82,358.93
6,499,0.024781,0.003845,0.995722,-13.23,86.17,6.92
7,599,0.027360,0.001625,0.994743,-18.22,34.18,-309.07
8,699,0.031602,0.002117,0.995741,-1.22,-11.82,62.93
9,799,0.028745,0.001401,0.997451,-54.23,11.17,-834.08
10,899,0.022837,-0.005159,1.006887,-2.23,-908.83,-3022.08
11,999,0.013001,-0.000169,1.011118,218.79,-5263.81,732.94
12,1109,0.042121,-0.003161,1.007371,-136.23,-7642.83,-1383.08
13,1209,0.077969,-0.001676,0.997668,257.78,-7407.82,549.93
14,1309,0.124205,0.000704,0.982609,98.77,-7439.83,-396.08
15,1419,0.161162,0.005400,0.954300,-103.22,-8974.82,-798.07
16,1519,0.217936,0.003147,0.923975,605.78,-10038.82,663.93
17,1619,0.287617,0.001984,0.888109,143.79,-10156.81,-444.06
18,1719,0.361275,0.002606,0.841895,-732.21,-10391.81,-774.06
19,1829,0.439595,0.000645,0.791224,625.78,-9803.82,644.93
20,1929,0.524074,0.003098,0.723214,1643.79,-7368.81,295.94
21,2029,0.585023,0.011096,0.650318,185.77,-5566.83,-458.08
22,2139,0.628755,0.011304,0.581911,413.79,-9659.81,616.94
23,2239,0.772000,0.003167,0.491337,1184.79,-829.81,1786.94
24,2339,0.775491,0.017858,0.442090,627.80,-2060.80,2040.95
25,2439,0.835990,0.019944,0.344840,1702.78,989.18,-3188.07
26,2539,0.866522,0.021095,0.317769,1653.79,-7998.81,2692.94
27,2649,0.892803,0.031815,0.243379,134.78,1668.18,122.93
28,2749,0.910070,0.034627,0.194356,-168.22,-716.82,-58.07
29,2849,0.923026,0.035333,0.156239,17.79,-330.81,7.94
30,2949,0.934368,0.036684,0.123364,-24.22,-88.82,-13.07
31,3059,0.943862,0.037338,0.095969,5.78,13.18,-1.07
32,3159,0.951896,0.037748,0.072958,3.80,12.20,-6.05
33,3259,0.959768,0.037858,0.052410,13.78,54.18,-6.07
34,3359,0.966112,0.037988,0.034962,-13.22,6.18,1.93
35,3469,0.970972,0.038373,0.020223,-3.22,7.18,-11.07
36,3569,0.975873,0.039121,0.008062,-0.22,122.18,5.93
37,3669,0.978610,0.039428,-0.000976,-1.22,140.18,-5.07
38,3769,0.981413,0.039725,-0.009335,-1.22,-16.82,1.93
39,3869,0.984181,0.040088,-0.016386,-25.21,-26.81,-10.06
40,3979,0.985452,0.040726,-0.021848,-12.22,142.18,20.93
41,4079,0.988163,0.040664,-0.027241,-13.22,57.18,9.93
42,4189,0.990540,0.039530,-0.031588,-240.22,-79.82,-18.07
43,4289,0.992102,0.039226,-0.035795,-7.23,-35.83,-19.08
44,4389,0.993779,0.039682,-0.038455,-7.20,-32.80,-6.05
45,4489,0.994526,0.039868,-0.040900,-1.23,5.17,-12.08
46,4589,0.995234,0.040355,-0.043051,-14.23,-31.83,1.92
47,4699,0.995983,0.040660,-0.045575,-3.22,4.18,-9.07
48,4799,0.996638,0.041029,-0.046787,-5.21,20.19,-0.06
49,4899,0.996956,0.041342,-0.048128,0.77,9.17,-1.08
50,4999,0.997501,0.041261,-0.049781,-1.22,17.18,-4.07
1,0,0.002652,0.000865,1.000063,-16.24,-26.84,-56.09
2,99,0.008092,0.001856,0.999678,-1.22,-0.82,-25.07
3,199,0.011911,0.001508,0.999845,0.77,5.17,-3.08
4,299,0.012117,0.000169,0.998412,5.76,-23.84,214.91
5,399,0.014178,0.001576,0.998585,-18.24,13.16,-25.09
6,499,0.018036,0.000721,0.998440,-9.22,-8.82,28.93
7,599,0.021388,0.001404,0.997492,11.77,-70.83,84.92
8,699,0.023323,0.002132,0.998609,-3.22,-32.82,-38.07
9,799,0.024637,0.001670,0.999009,5.77,5.17,-32.08
10,899,0.024179,0.000709,1.004477,2.77,26.17,-28.08
11,999,0.022197,0.000772,1.008465,-0.23,-29.83,-205.08
12,1109,0.022380,0.001996,1.007661,-13.23,-11.83,-100.08
13,1209,0.020210,0.002177,1.008644,3.77,-1214.83,-120.08
14,1309,0.018695,0.003466,1.007722,61.76,-3124.84,-104.09
15,1419,0.032221,0.002162,1.005547,26.76,-5294.84,-129.09
16,1519,0.055747,0.004259,0.998223,127.76,-6370.84,62.91
17,1619,0.086878,0.003350,0.996612,-24.23,-6926.83,-980.08
18,1719,0.132529,0.009479,0.979862,245.77,-6005.83,426.92
19,1829,0.185119,0.006414,0.963610,156.77,-4890.83,328.92
20,1929,0.232147,0.007415,0.947324,140.76,-4207.84,342.91
21,2029,0.278163,0.003633,0.930423,88.79,-3992.81,184.94
22,2139,0.318504,0.006627,0.912597,30.79,-4494.81,-125.06
23,2239,0.354624,0.007687,0.889626,247.76,-6899.84,498.91
24,2339,0.391002,0.002107,0.853749,1016.76,-10698.84,960.91
25,2439,0.455030,0.004596,0.792382,-128.23,-15664.83,-440.08
26,2539,0.542412,0.004149,0.712242,-2818.23,-16768.83,-781.08
27,2649,0.607349,0.010416,0.616382,413.79,-12369.81,109.94
28,2749,0.737343,0.020979,0.506264,1975.77,4262.17,521.92
29,2849,0.782030,0.020802,0.426140,484.76,-2732.84,92.91
30,2949,0.813294,0.029753,0.352175,1447.77,-3697.83,202.92
31,3059,0.842781,0.035603,0.279344,-527.22,-2888.82,190.93
32,3159,0.862479,0.034606,0.220861,453.77,-6700.83,221.92
33,3259,0.879991,0.033924,0.157199,-231.23,-810.83,90.92
34,3359,0.899766,0.028217,0.097702,-177.23,-623.83,78.92
35,3469,0.915146,0.030470,0.048760,-362.23,-752.83,160.92
36,3569,0.928768,0.029822,0.003020,-84.22,-1271.82,10.93
37,3669,0.937216,0.030114,-0.036407,-43.23,-265.83,-26.08
38,3769,0.942657,0.030673,-0.068529,-42.24,-97.84,8.91
39,3879,0.947777,0.031386,-0.096748,-24.22,-63.82,-2.07
40,3979,0.951744,0.032029,-0.121046,11.77,17.17,-3.08
41,4079,0.955061,0.032703,-0.141076,3.77,5.17,2.92
42,4189,0.958448,0.033039,-0.157992,1.77,8.17,-3.08
43,4289,0.960722,0.033305,-0.172444,-4.24,7.16,-6.09
44,4389,0.963022,0.033807,-0.185369,9.76,27.16,2.91
45,4489,0.965013,0.033757,-0.196081,9.77,27.17,0.92
46,4589,0.966926,0.033714,-0.205460,31.77,40.17,2.92
47,4699,0.968094,0.033642,-0.213378,-9.22,-2.82,5.93
48,4799,0.968939,0.033561,-0.219559,-14.25,8.15,-4.10
49,4899,0.969530,0.033530,-0.224648,9.76,32.16,5.91
50,4999,0.970637,0.033723,-0.228863,14.76,48.16,11.91
1,0,0.003055,0.000480,0.999313,0.77,-23.83,73.92
2,99,0.006530,-0.000302,0.998985,-14.23,-5.83,45.92
3,199,0.010144,-0.000253,0.998706,-5.23,9.17,20.92
4,299,0.011494,0.000119,0.998414,-24.23,18.17,-83.08
5,399,0.013228,0.000252,0.997819,-13.23,-9.83,-43.08
6,499,0.015031,-0.001686,0.997349,34.77,-66.83,49.92
7,599,0.018468,-0.000148,0.997736,15.77,-28.83,-22.08
8,699,0.017946,0.000135,0.997865,-2.23,-30.83,-91.08
9,799,0.019811,0.001126,0.997919,18.77,-78.83,84.92
10,899,0.020938,0.000576,0.997452,-4.23,-28.83,-134.08
11,999,0.018197,0.001684,0.998227,-13.23,-924.83,-62.08
12,1109,0.016343,0.002241,0.999820,36.77,-2147.83,13.92
13,1209,0.023575,0.000078,1.001430,74.77,-3465.83,-336.08
14,1309,0.038016,0.002798,0.999192,94.77,-5886.83,-394.08
15,1419,0.075157,-0.000437,0.993224,82.77,-5400.83,-117.08
16,1519,0.115114,-0.000001,0.984471,127.77,-4265.83,300.92
17,1619,0.142320,0.003939,0.978185,-36.24,-3802.84,-887.09
18,1719,0.176980,0.001558,0.968520,222.76,-6501.84,611.91
19,1829,0.213308,0.003910,0.948330,169.76,-9634.84,727.91
20,1929,0.250871,0.000911,0.916831,1080.78,-13704.82,1571.93
21,2029,0.314696,-0.003580,0.844555,2466.77,-20653.83,2249.92
22,2139,0.431917,-0.004559,0.753476,500.77,-16565.83,-791.08
23,2239,0.528534,-0.001820,0.647110,910.77,-11943.83,669.92
24,2339,0.589766,-0.005297,0.528043,-426.24,-6754.84,-4808.09
25,2439,0.669187,0.000244,0.403105,-220.23,-1988.83,-63.08
26,2539,0.720637,0.008946,0.331295,-1012.23,-806.83,-19.08
27,2649,0.726229,0.019162,0.309350,254.76,-11641.84,3506.91
28,2749,0.788623,0.013160,0.221794,525.76,2622.16,-348.09
29,2849,0.819850,0.008828,0.151857,-136.24,-225.84,-457.09
30,2949,0.840351,0.005878,0.094517,254.77,194.17,-537.08
31,3059,0.859974,0.005586,0.044843,419.76,692.16,-761.09
32,3159,0.879876,0.005906,0.003079,154.78,61.18,-484.07
33,3259,0.894486,0.007753,-0.031359,203.77,248.17,-243.08
34,3359,0.907619,0.009633,-0.060960,273.77,502.17,-267.08
35,3469,0.919916,0.010609,-0.083375,266.74,477.14,-489.11
36,3569,0.929288,0.014972,-0.102630,174.76,273.16,-314.09
37,3669,0.938244,0.017253,-0.119197,57.76,112.16,-133.09
38,3769,0.945453,0.019338,-0.132767,35.76,2.16,0.91
39,3879,0.951087,0.021202,-0.143770,59.76,40.16,-11.09
40,3979,0.957743,0.021834,-0.154349,376.75,113.15,-144.10
41,4079,0.961515,0.022134,-0.162939,-137.22,-70.82,63.93
42,4189,0.964795,0.023817,-0.169929,-20.22,-75.82,9.93
43,4289,0.967436,0.025357,-0.175632,37.76,-11.84,-10.09
44,4389,0.970064,0.026391,-0.180425,12.75,-24.85,-4.10
45,4489,0.971621,0.028295,-0.185159,-22.26,-135.86,36.89
46,4589,0.973201,0.029127,-0.189695,-228.24,-628.84,184.91
47,4699,0.975295,0.029247,-0.194155,-37.26,-139.86,17.89
48,4799,0.976471,0.029332,-0.198238,-114.23,-275.83,70.92
49,4899,0.977616,0.028708,-0.201710,32.76,14.16,-11.09
50,4999,0.978408,0.028544,-0.204843,28.77,6.17,-7.08
1,0,-0.003904,0.000223,0.999972,7.75,7.15,-14.10
2,99,-0.004805,0.000505,1.000113,-7.23,-3.83,30.92
3,199,-0.007072,0.001110,0.999866,-2.26,-19.86,17.89
4,299,-0.008963,0.002119,1.000059,-12.24,-7.84,-25.09
5,399,-0.010844,0.002410,1.000498,4.76,4.16,-20.09
6,499,-0.012224,0.003279,1.001915,22.77,-9.83,-32.08
7,599,-0.011767,0.002626,1.002112,-7.24,-5.84,19.91
8,699,-0.011708,0.003463,1.002152,8.77,-37.83,-35.08
9,799,-0.011109,0.004064,1.001728,1.75,-17.85,-4.10
10,899,-0.011643,0.004319,1.001623,28.76,-97.84,13.91
11,999,-0.011017,0.003675,1.001095,73.76,-143.84,-152.09
12,1109,-0.022826,0.005782,1.005224,7.75,-764.85,-738.10
13,1209,-0.022115,0.002960,1.003240,24.77,-2927.83,9.92
14,1309,-0.023635,0.003582,1.004850,119.77,-5607.83,-51.08
15,1419,0.003747,0.004019,0.999187,118.76,-8421.84,-559.09
16,1519,0.047769,0.009628,0.987013,145.78,-8993.82,-90.07
17,1619,0.097857,0.007949,0.972032,167.77,-9599.83,509.92
18,1719,0.144424,0.009416,0.940768,652.75,-12819.85,815.90
19,1829,0.223263,0.009142,0.888266,642.77,-17992.83,954.92
20,1929,0.318915,0.004003,0.820623,660.76,-14667.84,270.91
21,2029,0.423492,0.005348,0.738407,2272.77,-10523.83,473.92
22,2139,0.552482,0.018960,0.645929,864.77,-5213.83,1194.92
23,2239,0.600124,0.014051,0.568146,2001.77,-5588.83,1350.92
24,2339,0.657630,0.001290,0.474381,1614.77,-3657.83,-3747.08
25,2439,0.656065,0.045357,0.410904,1203.76,-5700.84,162.91
26,2539,0.721165,0.038905,0.372586,337.76,-3231.84,570.91
27,2649,0.760149,0.043272,0.302773,-656.23,-3100.83,185.92
28,2749,0.783929,0.043322,0.243596,-1114.23,-3586.83,249.92
29,2849,0.801560,0.035858,0.187033,-2264.24,-2945.84,487.91
30,2949,0.828923,0.035829,0.129104,-102.24,-279.84,-19.09
31,3059,0.852458,0.034945,0.080102,-7.24,-11.84,-8.09
32,3159,0.872663,0.034211,0.038615,-5.25,6.15,-17.10
33,3259,0.889507,0.034283,0.002875,-1.25,23.15,-1.10
34,3359,0.904064,0.033759,-0.027010,-0.24,30.16,-1.09
35,3469,0.916473,0.033130,-0.052778,10.76,40.16,6.91
36,3569,0.927296,0.032944,-0.074516,25.77,28.17,-6.08
37,3669,0.936441,0.033188,-0.093121,13.75,52.15,-6.10
38,3769,0.944176,0.032718,-0.107691,14.75,59.15,-7.10
39,3869,0.950661,0.032391,-0.121027,47.76,51.16,-20.09
40,3979,0.955605,0.032316,-0.131905,10.76,59.16,-6.09
41,4079,0.960631,0.031812,-0.141353,3.77,47.17,-13.08
42,4189,0.964409,0.031603,-0.148944,-4.25,4.15,-11.10
43,4289,0.968005,0.031645,-0.155488,9.76,30.16,-13.09
44,4389,0.972397,0.031352,-0.161564,81.74,391.14,-8.11
45,4489,0.974666,0.031541,-0.165721,54.75,214.15,-20.10
46,4589,0.976540,0.031684,-0.169382,64.74,172.14,-30.11
47,4699,0.980367,0.031843,-0.173300,112.75,96.15,-16.10
48,4799,0.983565,0.030714,-0.174671,-11.23,531.17,-29.08
49,4899,0.984269,0.031164,-0.173181,-3.25,953.15,-53.10
50,4999,0.983988,0.031272,-0.171201,-28.25,264.15,-10.10
1,0,-0.003574,0.000077,0.999954,-6.24,-8.84,62.91
2,99,-0.005312,0.000124,1.000152,-8.24,0.16,-134.09
3,199,-0.007191,0.000110,1.000193,8.77,-24.83,-69.08
4,299,-0.010584,-0.000233,1.000209,-2.24,-66.84,-192.09
5,399,-0.013504,0.000483,1.000277,-15.25,11.15,-91.10
6,499,-0.014320,0.001587,1.001031,-11.24,4.16,-78.09
7,599,-0.016369,0.002140,1.001453,-7.25,-89.85,60.90
8,699,-0.015217,0.004276,1.001261,23.76,-95.84,153.91
9,799,-0.015960,0.004133,1.001044,28.74,-90.86,52.89
10,899,-0.014027,0.004231,1.000291,5.75,-126.85,-106.10
11,999,-0.014288,0.005120,1.000641,-21.24,-321.84,-345.09
12,1109,-0.015152,0.003696,1.001230,21.74,-748.86,-247.11
13,1209,-0.018889,0.001094,1.006529,-63.25,-1803.85,-959.10
14,1309,-0.013386,0.001483,1.007096,182.74,-3522.86,-15.11
15,1419,0.002644,0.001704,1.005472,63.76,-5468.84,-490.09
16,1519,0.037346,0.005810,0.998581,111.77,-5536.83,259.92
17,1619,0.075832,0.005089,0.990306,25.74,-4415.86,-489.11
18,1719,0.111145,0.007350,0.982247,92.75,-4666.85,275.90
19,1829,0.137720,0.005940,0.971862,98.75,-6752.85,36.90
20,1929,0.171843,0.007122,0.955089,326.75,-10831.85,904.90
21,2029,0.230987,0.004208,0.912908,1482.75,-14577.85,2780.90
22,2139,0.318998,0.008982,0.847318,-1007.24,-12546.84,-2098.09
23,2239,0.398733,0.008847,0.777742,32.76,-13132.84,376.91
24,2339,0.483078,0.001774,0.699523,1550.75,-15561.85,1171.90
25,2439,0.590587,-0.012185,0.594127,4167.75,-15382.85,-9880.10
26,2539,0.646906,0.005376,0.498791,-632.24,-3741.84,678.91
27,2649,0.671723,0.023598,0.358978,-913.24,-9011.84,780.91
28,2749,0.725796,0.022571,0.274433,-762.23,-700.83,77.92
29,2849,0.767125,0.021094,0.205774,-104.23,-105.83,19.92
30,2949,0.800954,0.021797,0.146535,39.74,49.14,9.89
31,3059,0.829324,0.022706,0.095724,-1.25,25.15,-9.10
32,3159,0.853329,0.022819,0.052424,-3.24,-10.84,-9.09
33,3259,0.873733,0.023044,0.015913,-1.25,8.15,-1.10
34,3359,0.890435,0.023692,-0.014536,-6.24,9.16,0.91
35,3469,0.905200,0.024116,-0.040692,-2.25,-0.85,-1.10
36,3569,0.917750,0.024091,-0.062632,-10.25,10.15,-7.10
37,3669,0.927887,0.024784,-0.081097,-9.25,19.15,8.90
38,3769,0.936301,0.024787,-0.097214,1.75,15.15,2.90
39,3869,0.944442,0.024423,-0.110639,18.74,51.14,-1.11
40,3979,0.950374,0.024901,-0.121757,58.75,122.15,5.90
41,4079,0.956734,0.024777,-0.132306,77.75,23.15,-41.10
42,4189,0.962267,0.024616,-0.140962,22.74,98.14,4.89
43,4289,0.966166,0.024498,-0.147165,40.75,123.15,-2.10
44,4389,0.970578,0.023079,-0.152878,72.74,154.14,-13.11
45,4489,0.978265,0.027549,-0.160535,-151.25,675.15,66.90
46,4589,0.981339,0.025929,-0.160964,156.74,1704.14,-167.11
47,4699,0.984756,0.029111,-0.158839,143.74,2139.14,-193.11
48,4799,0.983597,0.026744,-0.147731,-349.26,486.14,-4.11
49,4899,0.986639,0.027845,-0.142628,352.75,619.15,-97.10
50,4999,0.986919,0.027260,-0.134867,97.75,234.15,-28.10
1,0,-0.007731,0.000534,0.999569,6.74,-4.86,-12.11
2,99,-0.012343,0.001978,1.000356,-30.26,-26.86,57.89
3,199,-0.017344,0.002399,1.000146,-21.26,0.14,-18.11
4,299,-0.017529,0.002061,0.999949,-4.25,-4.85,27.90
5,399,-0.020891,0.003110,0.998811,-23.25,65.15,-173.10
6,499,-0.023437,0.004515,0.999639,3.74,14.14,-45.11
7,599,-0.024650,0.005709,1.000141,-6.25,-9.85,-45.10
8,699,-0.030313,0.002677,0.998901,16.74,-98.86,-82.11
9,799,-0.028809,0.004330,0.999806,23.75,-85.85,82.90
10,899,-0.030662,0.004874,0.999496,39.75,-111.85,-37.10
11,999,-0.032274,0.007516,0.998847,25.75,9.15,-328.10
12,1109,-0.037269,0.008022,0.997673,-23.26,-58.86,-322.11
13,1209,-0.042669,0.008195,0.996639,9.73,-165.87,-1628.12
14,1309,-0.057348,0.004498,1.008723,274.74,-1805.86,-1206.11
15,1419,-0.052173,0.003625,1.006123,10.76,-4567.84,453.91
16,1519,-0.026773,0.005026,1.000251,75.76,-4942.84,-640.09
17,1619,-0.001740,0.007572,0.997182,101.74,-4779.86,58.89
18,1719,0.027192,0.006733,0.992669,96.75,-5578.85,-122.10
19,1829,0.060737,0.007686,0.984365,137.74,-7278.86,434.89
20,1929,0.107507,0.008221,0.969672,97.76,-8593.84,410.91
21,2029,0.164143,0.003238,0.949217,-132.27,-10369.87,1141.88
22,2139,0.232902,0.002316,0.903431,742.75,-13302.85,793.90
23,2239,0.316707,0.006861,0.846715,-319.25,-14701.85,60.90
24,2339,0.415553,-0.005096,0.783089,313.75,-14557.85,18.90
25,2439,0.493714,-0.006909,0.696194,3271.75,-12823.85,970.90
26,2539,0.604187,0.013229,0.551508,2766.76,-3896.84,-6376.09
27,2649,0.669744,0.009637,0.457914,-1014.25,-3652.85,331.90
28,2749,0.738853,0.010374,0.383284,-1928.25,-2811.85,573.90
29,2849,0.779505,0.015725,0.306940,-1650.24,-4158.84,233.91
30,2949,0.810689,0.018442,0.235950,21.75,-290.85,-19.10
31,3059,0.837013,0.019762,0.175956,-59.25,-155.85,-13.10
32,3159,0.860451,0.020903,0.124596,107.75,10.15,-9.10
33,3259,0.879713,0.022001,0.080371,42.75,-2.85,-6.10
34,3359,0.896178,0.023099,0.043238,53.75,-1.85,-11.10
35,3469,0.910923,0.024435,0.012115,28.74,6.14,-5.11
36,3569,0.922596,0.025095,-0.014395,1.74,-21.86,-12.11
37,3669,0.932866,0.025545,-0.037075,4.75,22.15,-2.10
38,3769,0.941394,0.026203,-0.056848,-19.26,-7.86,2.89
39,3869,0.948698,0.026891,-0.072739,4.74,1.14,3.89
40,3979,0.954852,0.027310,-0.087143,15.76,28.16,0.91
41,4079,0.960119,0.027832,-0.098892,14.75,46.15,-5.10
42,4189,0.965127,0.028128,-0.107927,75.74,74.14,-12.11
43,4289,0.969475,0.028362,-0.116303,6.74,38.14,3.89
44,4389,0.973830,0.027993,-0.123550,57.73,100.13,-2.12
45,4489,0.977019,0.028466,-0.129674,4.74,23.14,-5.11
46,4589,0.980133,0.028118,-0.134568,55.74,199.14,5.89
47,4699,0.983109,0.027347,-0.138032,330.74,662.14,-43.11
48,4799,0.985364,0.030591,-0.141672,172.74,977.14,-51.11
49,4899,0.987299,0.032268,-0.141507,-92.26,2171.14,-125.11
50,4999,0.985062,0.032118,-0.133420,3.73,445.13,-31.12
1,0,-0.008683,0.001468,0.999111,7.74,19.14,-52.11
2,99,-0.016869,0.001819,0.998447,32.76,-110.84,76.91
3,199,-0.022582,0.002685,0.998926,-8.25,-33.85,-15.10
4,299,-0.028519,0.001700,1.000103,-55.26,-187.86,21.89
5,399,-0.027980,0.004232,1.000059,-31.26,-106.86,-3.11
6,499,-0.030928,0.005267,1.000882,5.75,-68.85,122.90
7,599,-0.035979,0.001697,1.001728,-13.25,-227.85,313.90
8,699,-0.015058,-0.046234,1.058954,-32.25,1595.15,172.90
9,799,-0.013792,-0.036036,1.049899,-35.25,-1.85,-1035.10
10,899,-0.019546,-0.030353,1.045352,88.74,-393.86,-782.11
11,999,-0.033958,-0.022775,1.039473,148.74,-2485.86,263.89
12,1109,-0.031670,-0.016535,1.033359,109.75,-5693.85,407.90
13,1209,-0.012128,-0.010866,1.024500,127.74,-6791.86,-109.11
14,1309,0.026400,-0.008243,1.011879,94.74,-6395.86,461.89
15,1419,0.058856,-0.004000,1.001939,128.74,-6481.86,119.89
16,1519,0.099975,0.001602,0.983053,141.74,-8554.86,813.89
17,1619,0.154536,-0.006399,0.964582,465.73,-10227.87,1315.88
18,1719,0.218125,-0.003147,0.927423,877.73,-12810.87,1356.88
19,1829,0.316268,0.002144,0.863812,166.74,-14528.86,550.89
20,1929,0.424701,0.000764,0.790443,482.73,-14242.87,-131.12
21,2029,0.502642,0.011053,0.708561,-482.27,-9798.87,377.88
22,2139,0.714855,-0.026893,0.679372,2944.75,-18895.85,-3592.10
23,2239,0.771100,-0.008097,0.571890,2619.75,-359.85,24.90
24,2339,0.805981,-0.002393,0.492066,-68.25,-371.85,23.90
25,2439,0.838852,0.007235,0.421285,-715.26,-345.86,-1.11
26,2539,0.864851,0.010511,0.359584,-751.24,240.16,67.91
27,2649,0.884223,0.015036,0.309060,-17.25,26.15,9.90
28,2749,0.901237,0.019119,0.266152,-21.26,-49.86,-32.11
29,2849,0.915169,0.022645,0.229167,-19.25,-62.85,-14.10
30,2949,0.928971,0.025240,0.196943,0.75,30.15,9.90
31,3049,0.939969,0.027866,0.170211,-1.25,0.15,4.90
32,3159,0.948933,0.029604,0.147635,-7.26,-8.86,-12.11
33,3259,0.956095,0.031301,0.129069,6.74,14.14,-5.11
34,3359,0.962951,0.032450,0.112573,2.74,20.14,-2.11
35,3469,0.968688,0.033940,0.099193,-9.25,5.15,-4.10
36,3569,0.973162,0.035024,0.087435,-11.24,27.16,-6.09
37,3669,0.977477,0.035834,0.077294,-6.26,13.14,-3.11
38,3769,0.981108,0.036359,0.069224,-15.26,2.14,-2.11
39,3869,0.983608,0.036988,0.062254,12.75,64.15,6.90
40,3979,0.986191,0.037083,0.056202,-10.26,-33.86,-4.11
41,4079,0.988716,0.037511,0.051094,-11.26,-12.86,3.89
42,4189,0.990332,0.038096,0.046606,-11.26,14.14,-2.11
43,4289,0.992034,0.038006,0.043175,-8.26,38.14,-5.11
44,4389,0.994232,0.040548,0.038446,-106.26,271.14,8.89
45,4489,0.996760,0.039688,0.036002,12.74,80.14,3.89
46,4589,0.998176,0.039048,0.034308,-45.25,258.15,-7.10
47,4699,0.998501,0.039878,0.034535,78.74,265.14,2.89
48,4799,0.998978,0.039777,0.034179,124.73,377.13,-8.12
49,4899,0.996655,0.040333,0.038948,-45.26,-254.86,-50.11
50,4999,0.997556,0.041446,0.037472,-289.25,113.15,-5.10
1,0,0.005215,0.000425,0.999898,-14.26,4.14,-34.11
2,99,0.012460,-0.000811,0.998985,-20.47,-12.07,-47.32
3,199,0.020487,-0.000763,0.998411,-23.45,30.95,-127.30
4,299,0.025333,-0.000117,1.000340,15.55,26.95,-47.30
5,399,0.029379,0.000981,1.001906,-18.43,10.97,-24.28
6,499,0.032654,0.002043,1.002377,-5.42,1.98,-93.27
7,599,0.041846,-0.007876,1.014020,-362.43,4.97,-553.28
8,699,0.062953,-0.018962,1.020603,41.61,-166.99,-2020.24
9,799,0.059874,-0.010331,1.015083,106.59,-128.01,-1618.26
10,899,0.043451,-0.000083,1.001731,-369.40,-70.00,-1789.25
11,999,0.036467,-0.003640,1.012098,-164.39,-168.99,-353.24
12,1109,0.038771,-0.002837,1.010803,-100.40,-770.00,352.75
13,1209,0.022968,0.000703,1.010763,-71.39,-4023.99,-1048.24
14,1309,0.032864,0.002576,1.006024,117.62,-7548.98,-79.23
15,1419,0.061288,0.004315,0.994287,240.61,-9968.99,145.76
16,1519,0.125292,0.008137,0.972995,308.61,-9800.99,1002.76
17,1619,0.185153,0.007394,0.951381,-146.37,-8406.97,-487.22
18,1719,0.241968,0.005883,0.922426,410.64,-8832.96,791.79
19,1829,0.320583,0.005900,0.883514,-248.37,-7921.97,-353.22
20,1929,0.376693,0.007177,0.840294,28.63,-8537.97,-164.22
21,2029,0.433725,0.012199,0.771715,329.62,-13352.98,-77.23
22,2139,0.527028,0.004475,0.690663,1803.64,-12056.96,207.79
23,2239,0.588830,0.005490,0.610655,582.66,-7949.94,-140.19
24,2339,0.686809,-0.014649,0.548526,1795.67,-9154.93,745.82
25,2439,0.703660,0.000001,0.441058,381.65,6052.05,-604.20
26,2539,0.744845,0.011356,0.368040,-260.35,-2563.95,116.80
27,2649,0.814295,0.027122,0.259338,-53.35,-2203.95,-257.20
28,2749,0.844103,0.030252,0.207352,-63.36,0.04,14.79
29,2849,0.867829,0.031099,0.164721,0.66,80.06,11.81
30,2949,0.888033,0.032937,0.128136,-0.34,25.06,1.81
31,3059,0.904565,0.034334,0.097406,4.65,63.05,9.80
32,3159,0.918727,0.035979,0.071138,1.65,-26.95,-8.20
33,3259,0.931937,0.037377,0.048133,-29.35,71.05,5.80
34,3359,0.942011,0.038437,0.029586,-11.36,-31.96,-18.21
35,3469,0.950153,0.039356,0.013949,-33.37,-45.97,2.78
36,3569,0.957678,0.040230,0.000071,16.66,81.06,-1.19
37,3669,0.965796,0.043664,-0.014361,-192.35,326.05,2.80
38,3769,0.970737,0.044147,-0.023552,52.66,120.06,10.81
39,3869,0.975157,0.044247,-0.031786,-29.34,91.06,25.81
40,3979,0.978108,0.044607,-0.037466,-6.35,34.05,2.80
41,4079,0.981111,0.046212,-0.043045,-200.34,95.06,35.81
42,4189,0.983681,0.044904,-0.047165,54.65,-105.95,-32.20
43,4289,0.987001,0.044725,-0.051600,-7.33,58.07,17.82
44,4389,0.990190,0.044244,-0.055645,0.66,483.06,-10.19
45,4489,0.994090,0.046234,-0.061244,28.66,732.06,-33.19
46,4589,0.996966,0.043018,-0.060583,-334.33,3108.07,-215.18
47,4699,1.000876,0.042610,-0.060167,-166.33,-665.93,82.82
48,4799,1.002368,0.044332,-0.052856,451.67,375.07,431.82
49,4899,1.002501,0.044935,-0.046953,110.66,12.06,108.81
50,4999,1.002083,0.043398,-0.038804,355.68,36.08,39.83
1,0,0.004608,0.000094,0.999293,9.67,-11.93,52.82
2,99,0.008635,0.002096,0.998802,-9.32,-9.92,87.83
3,199,0.011454,0.001052,0.998312,3.69,-3.91,-70.16
4,299,0.015736,0.002783,0.997877,-4.31,6.09,-13.16
5,399,0.018497,0.002679,0.997837,-4.32,1.08,-74.17
6,499,0.021228,0.002481,0.997546,35.68,-35.92,108.83
7,599,0.019247,0.001379,0.997445,3.68,51.08,-68.17
8,699,0.022305,0.000863,0.998202,-28.31,-81.91,6.84
9,799,0.024703,0.004179,0.996758,-58.32,160.08,-63.17
10,899,0.025606,0.004378,0.997527,13.68,-27.92,144.83
11,999,0.027747,0.006324,0.998015,-9.32,77.08,-213.17
12,1109,0.028377,0.004828,0.997643,-11.31,-9.91,-59.16
13,1209,0.027301,0.006945,0.998242,-24.32,44.08,-135.17
14,1309,0.030542,0.005265,0.996041,11.68,-135.92,-362.17
15,1419,0.029306,0.005613,0.997320,7.68,1.08,-1266.17
16,1519,0.012581,0.008490,0.998553,-194.32,-1234.92,-1900.17
17,1619,0.006898,0.009490,1.000664,13.69,-4412.91,-318.16
18,1719,0.023052,0.009882,0.994713,128.71,-6914.89,-915.14
19,1829,0.064999,0.008805,0.984398,-835.33,-4492.93,-2981.18
20,1929,0.092542,0.013364,0.978250,-136.32,-3829.92,-919.17
21,2029,0.114654,0.014695,0.972566,21.69,-4667.91,-395.16
22,2139,0.152162,0.005425,0.963981,452.68,-8465.92,928.83
23,2239,0.189299,0.007067,0.942292,1628.69,-11899.91,2093.84
24,2339,0.233097,-0.009682,0.890458,4889.69,-19180.91,5758.84
25,2439,0.342561,0.001056,0.782678,5852.69,-25328.91,4660.84
26,2539,0.445126,-0.003293,0.682129,-2236.32,-14263.92,-1137.17
27,2649,0.536445,-0.029475,0.572567,-2101.29,-2448.89,-6707.14
28,2749,0.593339,-0.023989,0.488648,488.69,-5900.91,28.84
29,2849,0.657848,0.075101,0.187099,-1573.31,-21267.91,-6.16
30,2949,0.705906,0.068362,0.126358,501.70,1072.10,-49.15
31,3059,0.744009,0.065416,0.068904,-42.32,-60.92,-5.17
32,3159,0.778410,0.062216,0.017780,2.67,13.07,5.82
33,3259,0.808237,0.059313,-0.026280,13.69,22.09,6.84
34,3359,0.832949,0.057633,-0.063236,-5.31,10.09,1.84
35,3469,0.853607,0.055417,-0.094814,-11.31,19.09,-2.16
36,3569,0.870983,0.053242,-0.121819,-5.30,6.10,2.85
37,3669,0.885515,0.051923,-0.144609,5.71,34.11,-6.14
38,3769,0.898270,0.050894,-0.164054,9.70,8.10,-14.15
39,3869,0.909147,0.049689,-0.180729,10.68,53.08,-4.17
40,3979,0.919236,0.049380,-0.194060,28.69,76.09,-0.16
41,4079,0.927500,0.048585,-0.206087,3.69,114.09,0.84
42,4189,0.934854,0.047745,-0.216439,20.69,131.09,10.84
43,4289,0.940207,0.046793,-0.222857,32.67,249.07,2.82
44,4389,0.947779,0.045105,-0.230693,398.68,376.08,-86.17
45,4489,0.949948,0.042095,-0.229846,490.69,599.09,-112.16
46,4589,0.952451,0.042595,-0.228779,-57.33,998.07,-7.18
47,4699,0.956062,0.042855,-0.227542,21.68,1892.08,-53.17
48,4799,0.962556,0.048569,-0.229456,25.69,1204.09,-9.16
49,4899,0.968203,0.048263,-0.222478,-59.31,2739.09,-52.16
50,4999,0.968555,0.049796,-0.206164,-142.31,3167.09,-20.16
1,0,0.004865,0.001321,1.000300,-25.32,66.08,-79.17
2,99,0.010556,0.002077,1.000098,-3.33,23.07,-104.18
3,199,0.013838,0.003526,0.999120,16.69,10.09,36.84
4,299,0.015675,0.002688,0.999260,10.68,-40.92,-164.17
5,399,0.015900,0.003038,0.999744,-16.31,-31.91,-293.16
6,499,0.019698,0.004160,0.999461,-8.31,-93.91,-129.16
7,599,0.017433,0.002952,0.999622,25.68,-175.92,-679.17
8,699,0.019500,0.002109,1.000620,86.68,-2539.92,-629.17
9,799,0.031694,0.003772,0.997385,62.67,-2734.93,-350.18
10,899,0.047222,0.004949,0.993756,-137.31,-1318.91,-1185.16
11,999,0.061666,0.007853,0.994316,-232.31,-2958.91,-1653.16
12,1109,0.071362,0.006585,0.993674,-232.33,-4721.93,-1749.18
13,1209,0.096083,0.009537,0.984578,-24.30,-5435.90,-1111.15
14,1309,0.137311,0.016440,0.967874,-225.32,-5753.92,-1250.17
15,1419,0.182095,0.014526,0.966292,-285.32,-5007.92,-807.17
16,1519,0.220181,0.014254,0.954015,-199.32,-5932.92,-456.17
17,1619,0.263173,0.015908,0.933876,163.68,-7822.92,-126.17
18,1719,0.308707,0.017900,0.907492,290.67,-9472.93,-74.18
19,1829,0.378228,0.019448,0.865767,597.69,-8505.91,287.84
20,1929,0.448032,0.022667,0.818508,310.69,-6515.91,307.84
21,2029,0.504729,0.023408,0.764825,582.68,-6618.92,-118.17
22,2139,0.550285,0.026253,0.701982,2009.69,-12461.91,670.84
23,2239,0.638574,0.027261,0.622950,3023.67,-9867.93,524.82
24,2339,0.674161,0.030645,0.539879,2926.70,-6662.90,-198.15
25,2439,0.756447,0.036231,0.439770,4618.68,5063.08,1000.83
26,2539,0.775745,0.038783,0.366598,-1507.30,433.10,-241.15
27,2649,0.846896,0.018667,0.282190,445.68,-7435.92,-448.17
28,2749,0.855812,0.028687,0.237159,-63.32,-9008.92,-3235.17
29,2849,0.866613,0.046359,0.151953,-2087.31,-5014.91,-2367.16
30,2949,0.877460,0.055924,0.094176,-644.31,831.09,1103.84
31,3059,0.892558,0.059385,0.040213,-419.31,-2050.91,-829.16
32,3159,0.907680,0.065805,-0.002725,-109.32,567.08,446.83
33,3259,0.917549,0.072453,-0.040944,-4.31,34.09,-17.16
34,3359,0.927366,0.077445,-0.073083,107.68,659.08,223.83
35,3469,0.935728,0.077879,-0.098807,471.67,7780.07,2660.82
36,3569,0.947999,0.070978,-0.081635,321.67,8242.07,3075.82
37,3669,0.957167,0.067749,-0.080625,-163.33,-602.93,64.82
38,3769,0.962194,0.064785,-0.076965,-27.32,-2.92,-45.17
39,3879,0.967530,0.061515,-0.073781,37.68,158.08,20.83
40,3979,0.972266,0.058461,-0.070965,18.67,78.07,17.82
41,4079,0.974534,0.056249,-0.067893,37.68,178.08,54.83
42,4189,0.977835,0.053875,-0.066656,-13.33,-60.93,15.82
43,4289,0.981648,0.052021,-0.064469,-6.34,11.06,1.81
44,4389,0.986922,0.050904,-0.064532,13.67,-18.93,-18.18
45,4489,0.988108,0.049899,-0.062847,16.67,63.07,-9.18
46,4589,0.989667,0.048605,-0.061744,-7.32,-38.92,-14.17
47,4699,0.991229,0.047835,-0.061136,-2.33,15.07,-5.18
48,4799,0.992136,0.047053,-0.059759,-7.33,19.07,-15.18
49,4899,0.993255,0.046040,-0.059283,-4.32,-5.92,2.83
50,4999,0.994590,0.045234,-0.058458,-12.31,-4.91,-6.16
1,0,0.007300,0.001577,1.000245,-19.33,-22.93,4.82
2,99,0.009421,0.003393,1.000600,-4.33,-0.93,-19.18
3,199,0.013147,0.003637,1.000151,-15.33,-10.93,26.82
4,299,0.015399,0.002856,0.999806,-45.33,-21.93,91.82
5,399,0.017935,0.003839,0.999275,-17.33,-11.93,74.82
6,499,0.020238,0.006727,0.999647,0.67,-5.93,72.82
7,599,0.021993,0.003706,0.999012,-51.33,-16.93,-320.18
8,699,0.024419,0.005715,0.998819,10.67,-133.93,-244.18
9,799,0.027928,0.006563,0.997887,-16.32,-175.92,-185.17
10,899,0.019192,0.006149,1.002075,8.68,-877.92,-386.17
11,999,0.018651,0.004386,1.001386,55.67,-2632.93,245.82
12,1109,0.033682,0.001881,0.998439,-9.32,-2875.92,-418.17
13,1209,0.045817,0.006985,0.998937,-19.33,-3143.93,-449.18
14,1309,0.065764,0.006452,0.997071,7.67,-4771.93,-16.18
15,1419,0.098300,0.003509,0.989223,-332.33,-6093.93,-1869.18
16,1519,0.128941,0.004029,0.985482,-56.32,-8815.92,-951.17
17,1619,0.175274,0.007693,0.958425,333.67,-9963.93,356.82
18,1719,0.232711,0.006871,0.927773,119.67,-11517.93,329.82
19,1829,0.299513,0.012709,0.859934,1983.67,-13412.93,1206.82
20,1929,0.384933,0.005403,0.802252,-1165.33,-16055.93,-432.18
21,2029,0.469386,0.001134,0.725959,-971.34,-11410.94,-1434.19
22,2139,0.554209,0.004189,0.630677,2.67,-7730.93,-617.18
23,2239,0.607266,0.006584,0.547234,779.68,-9986.92,-717.17
24,2339,0.711379,0.021474,0.418666,758.67,-872.93,153.82
25,2439,0.738443,0.006518,0.388008,-208.31,-5198.91,400.84
26,2539,0.758500,0.003840,0.303850,6468.68,-15823.92,-29.17
27,2649,0.785215,0.013630,0.211881,355.67,1961.07,1231.82
28,2749,0.815212,0.014462,0.140665,-1143.32,-2524.92,-984.17
29,2849,0.832121,0.023007,0.070134,-936.32,-2645.92,-1089.17
30,2949,0.847446,0.030765,0.006686,-161.32,-371.92,-139.17
31,3059,0.862010,0.034703,-0.044829,818.66,2602.06,1218.81
32,3159,0.880414,0.034279,-0.082756,-26.32,159.08,157.83
33,3259,0.892138,0.036427,-0.116954,13.67,104.07,55.82
34,3359,0.902031,0.037996,-0.146755,36.68,312.08,158.83
35,3469,0.911356,0.038561,-0.170218,2.67,156.07,133.82
36,3569,0.919007,0.038804,-0.191058,11.68,104.08,51.83
37,3669,0.924485,0.039724,-0.209066,-11.33,15.07,-4.18
38,3769,0.930093,0.039828,-0.223713,152.66,143.06,53.81
39,3879,0.935500,0.039477,-0.235340,2.66,-37.94,-20.19
40,3979,0.940042,0.039051,-0.245606,58.67,312.07,162.82
41,4079,0.944306,0.037883,-0.253271,26.67,283.07,196.82
42,4189,0.950035,0.035260,-0.257497,354.66,1300.06,487.81
43,4289,0.953715,0.035100,-0.265942,448.67,236.07,45.82
44,4389,0.954719,0.034031,-0.264477,385.67,1833.07,-59.18
45,4489,0.958173,0.032426,-0.261621,116.68,134.08,3.83
46,4589,0.961859,0.031134,-0.259248,83.65,104.05,1.80
47,4699,0.964057,0.030586,-0.256316,72.65,67.05,16.80
48,4799,0.966366,0.029479,-0.254006,70.66,48.06,7.81
49,4899,0.970270,0.027641,-0.251640,243.67,688.07,151.82
50,4999,0.971354,0.028130,-0.247487,406.67,1420.07,-24.18
1,0,0.000469,0.002620,0.999165,-3.35,19.05,-10.20
2,99,-0.001218,0.003145,0.999828,2.67,14.07,-6.18
3,199,-0.001628,0.005623,0.999495,-37.33,60.07,-14.18
4,299,-0.005089,0.005075,0.999706,31.65,-57.95,19.80
5,399,-0.005852,0.006092,0.999062,-41.34,73.06,-41.19
6,499,-0.006793,0.005674,1.000070,-12.33,-0.93,-36.18
7,599,-0.009095,0.005723,1.000891,-60.34,91.06,-47.19
8,699,-0.011783,0.005269,1.001204,12.67,-71.93,-20.18
9,799,-0.012146,0.003529,1.000555,7.67,-138.93,-371.18
10,899,-0.010202,0.005290,0.999581,27.67,-132.93,94.82
11,999,-0.008348,0.005305,0.998534,-8.33,41.07,185.82
12,1109,-0.005930,0.006599,0.998157,-7.32,-31.92,-402.17
13,1209,-0.009515,0.009181,0.998331,-2.35,-96.95,-148.20
14,1309,-0.001191,0.001764,1.001573,13.66,-105.94,-2147.19
15,1419,0.012934,-0.000257,1.005812,77.66,-245.94,-1605.19
16,1519,0.002930,0.002457,1.006284,42.65,-670.95,-1110.20
17,1619,-0.004071,0.004489,1.008516,52.66,-2711.94,-49.19
18,1719,0.001898,0.004715,1.006971,50.65,-4519.95,-25.20
19,1829,0.016054,0.006701,1.004102,67.66,-5905.94,-409.19
20,1929,0.040080,0.005369,0.996591,77.67,-7130.93,-305.18
21,2029,0.085240,0.003302,0.983138,158.67,-6998.94,286.82
22,2139,0.134155,0.006123,0.970184,12.68,-5346.92,-509.17
23,2239,0.192339,0.001124,0.952087,16.67,-4856.94,-532.18
24,2339,0.243005,0.002843,0.934324,181.67,-4982.93,557.82
25,2439,0.283928,0.006008,0.913897,230.65,-6548.95,-125.20
26,2539,0.329443,0.003424,0.884687,1377.65,-9156.95,1212.80
27,2649,0.397610,0.007819,0.832686,-774.34,-10808.94,-3332.19
28,2749,0.454161,0.009798,0.772206,796.67,-10200.93,985.82
29,2849,0.528176,0.013165,0.704503,2400.67,-13504.93,282.82
30,2949,0.600463,0.022142,0.620405,1727.67,-10985.93,-704.18
31,3059,0.704900,0.041820,0.484669,4775.65,-1835.95,585.80
32,3159,0.726325,0.034725,0.443983,-1069.34,-5876.94,498.81
33,3259,0.741259,0.026314,0.361774,6264.67,-20630.93,1054.82
34,3359,0.778892,0.036157,0.258388,351.66,1061.06,871.81
35,3469,0.810862,0.032237,0.178621,-1336.32,-3919.92,-1675.17
36,3569,0.829998,0.038866,0.104905,-1633.34,-4900.94,-2404.19
37,3669,0.847601,0.046845,0.037120,60.67,332.07,242.82
38,3769,0.861061,0.052857,-0.018777,510.66,1519.06,728.81
39,3879,0.886950,0.056979,-0.069053,1738.68,5599.08,2884.83
40,3979,0.897162,0.056711,-0.102725,48.65,-1088.95,-731.20
41,4079,0.905404,0.056373,-0.130797,60.68,563.08,282.83
42,4189,0.914003,0.055976,-0.152955,23.66,168.06,74.81
43,4289,0.923014,0.054393,-0.171075,4.66,38.06,20.81
44,4389,0.929868,0.053633,-0.186477,65.66,228.06,90.81
45,4489,0.936280,0.052622,-0.199294,-34.33,-260.93,-133.18
46,4589,0.942042,0.051377,-0.209603,6.67,24.07,5.82
47,4699,0.946444,0.049953,-0.217963,92.64,277.04,92.79
48,4799,0.948831,0.050280,-0.224885,500.65,1824.05,945.80
49,4899,0.942144,0.044205,-0.216066,386.65,706.05,-66.20
50,4999,0.947245,0.041220,-0.217652,79.65,9.05,-27.20
1,0,-0.001087,0.000808,1.000208,38.66,-60.94,71.81
2,99,-0.001296,0.004735,0.999782,-2.34,-7.94,-30.19
3,199,-0.003269,0.004814,0.999437,15.66,-34.94,65.81
4,299,-0.004872,0.005120,0.999071,2.66,27.06,43.81
5,399,-0.006345,0.004152,0.998503,25.65,-108.95,-21.20
6,499,-0.005418,0.007541,0.998442,10.66,-61.94,76.81
7,599,-0.006846,0.007602,0.998921,8.66,-16.94,135.81
8,699,-0.012729,0.005036,1.000701,39.66,-159.94,44.81
9,799,-0.012510,0.004795,0.999926,-49.34,-180.94,-885.19
10,899,-0.008809,0.008051,0.998754,158.65,-305.95,-190.20
11,999,-0.014031,0.006571,0.999992,-19.33,78.07,256.82
12,1109,-0.015833,0.005331,1.000842,-1.33,-27.93,-38.18
13,1209,-0.013757,0.009184,1.000320,-10.34,-131.94,-322.19
14,1309,-0.012176,0.004147,1.005132,-34.34,-276.94,-1378.19
15,1419,-0.016380,0.007793,0.999663,-58.34,-366.94,-1461.19
16,1519,-0.014149,0.012907,1.000948,-19.34,-1410.94,-20.19
17,1619,-0.014341,0.014634,1.000556,-92.36,-1927.96,102.79
18,1719,-0.003316,0.004659,1.010056,-365.35,-2564.95,-252.20
19,1829,0.004737,0.001142,1.012949,30.65,-4201.95,-498.20
20,1929,0.019016,0.002364,1.009897,160.65,-5728.95,272.80
21,2029,0.045216,0.003660,1.003311,-25.34,-6924.94,-961.19
22,2139,0.090411,0.005273,0.985921,250.65,-8459.95,522.80
23,2239,0.151549,0.002543,0.964108,71.65,-8062.95,-607.20
24,2339,0.223531,0.006210,0.935862,261.66,-6897.94,149.81
25,2439,0.285264,0.007240,0.905225,268.64,-6985.96,681.79
26,2539,0.336035,0.004050,0.872995,864.66,-7601.94,837.81
27,2649,0.407150,0.008242,0.814013,799.65,-14334.95,622.80
28,2749,0.474062,0.011292,0.750713,-1873.35,-11302.95,-3676.20
29,2849,0.557670,0.019213,0.669992,831.65,-9370.95,1883.80
30,2949,0.611360,0.011005,0.594934,813.65,-9372.95,387.80
31,3059,0.691165,0.004431,0.520569,1165.66,-3634.94,-544.19
32,3159,0.716774,0.009243,0.465562,-48.35,-2606.95,237.80
33,3259,0.712633,-0.002872,0.415419,2388.66,-19153.94,2001.81
34,3359,0.719770,0.023049,0.319495,-585.35,-3877.95,-2675.20
35,3469,0.778936,0.013460,0.243031,21.65,4036.05,2897.80
36,3569,0.801762,0.019939,0.166630,-128.34,-823.94,-662.19
37,3669,0.827664,0.020905,0.105113,-80.35,-391.95,-248.20
38,3769,0.848730,0.022825,0.051762,-7.33,47.07,18.82
39,3879,0.867697,0.023670,0.007787,139.66,607.06,335.81
40,3979,0.883837,0.023765,-0.028384,10.66,-24.94,-11.19
41,4079,0.897575,0.023681,-0.060319,-95.35,-370.95,-196.20
42,4189,0.910698,0.022914,-0.086054,38.66,166.06,87.81
43,4289,0.920590,0.023214,-0.109046,-25.35,-101.95,-65.20
44,4389,0.929419,0.023195,-0.127618,-1.33,-12.93,4.82
45,4489,0.933994,0.025028,-0.146701,-778.34,1182.06,860.81
46,4589,0.940903,0.023711,-0.159863,26.64,57.04,-8.21
47,4699,0.946300,0.023122,-0.170173,-26.35,-46.95,-24.20
48,4799,0.951254,0.022494,-0.178972,-5.34,-23.94,-10.19
49,4899,0.956014,0.021154,-0.186415,236.64,-148.96,-105.21
50,4999,0.977529,0.015053,-0.190086,525.66,257.06,60.81
1,0,-0.004676,0.001961,1.001435,54.65,-113.95,-196.20
2,99,-0.011525,0.001010,0.999946,-3.33,-28.93,11.82
3,199,-0.014398,0.002966,0.999338,15.67,-12.93,-111.18
4,299,-0.017225,0.001169,0.999060,27.66,2.06,-34.19
5,399,-0.020452,0.000483,0.998641,-19.34,-28.94,94.81
6,499,-0.021254,0.000248,0.998962,31.68,-44.92,75.83
7,599,-0.023693,0.000561,0.998887,36.66,-137.94,388.81
8,699,-0.024632,0.002053,0.999372,-14.34,66.06,110.81
9,799,-0.027206,0.002809,0.998686,45.66,-154.94,132.81
10,899,-0.026262,0.005777,0.999165,7.66,-78.94,167.81
11,999,-0.025479,0.004711,0.997558,-29.34,66.06,77.81
12,1109,-0.021187,0.005948,0.995991,-39.34,-358.94,-49.19
13,1209,-0.029184,0.007841,0.996837,90.69,-845.91,-715.16
14,1309,-0.033712,0.007546,1.001933,28.67,-2762.93,-67.18
15,1419,-0.025988,0.009144,0.999819,70.66,-5600.94,460.81
16,1519,-0.010890,0.008361,0.997254,-24.34,-6920.94,-846.19
17,1619,0.029775,0.005021,0.987932,67.67,-7687.94,-357.18
18,1719,0.070804,0.008353,0.978012,111.66,-6975.94,-320.19
19,1829,0.123697,0.006865,0.964417,37.68,-7231.92,232.83
20,1929,0.171384,0.015414,0.938011,-249.33,-8050.93,167.82
21,2029,0.233212,0.019457,0.894546,557.65,-14437.95,1481.80
22,2139,0.323798,0.015662,0.836671,-3622.33,-14966.93,-3247.18
23,2239,0.414199,0.010257,0.769112,-775.33,-10926.93,667.82
24,2339,0.500379,0.007567,0.693377,10.68,-10570.92,-731.17
25,2439,0.566252,-0.000231,0.615397,1888.67,-9052.93,363.82
26,2539,0.638229,0.026594,0.517437,1547.66,-6157.94,658.81
27,2649,0.658211,0.019586,0.464511,1089.67,-9426.93,789.82
28,2749,0.801997,0.076709,0.261815,2234.67,4430.07,158.82
29,2849,0.834419,0.063739,0.184720,-232.36,-435.96,35.79
30,2949,0.857144,0.056964,0.120252,-156.32,-354.92,-13.17
31,3059,0.875106,0.051479,0.064941,-64.34,-73.94,-1.19
32,3159,0.890702,0.047202,0.018000,7.67,12.07,15.82
33,3259,0.903740,0.043767,-0.021845,-23.34,-0.94,4.81
34,3359,0.914785,0.040061,-0.055328,-5.33,7.07,-2.18
35,3469,0.924119,0.037240,-0.083753,-30.32,9.08,-8.17
36,3569,0.931961,0.034512,-0.107859,-14.34,17.06,-3.19
37,3669,0.938956,0.032048,-0.128037,-8.33,6.07,12.82
38,3769,0.944609,0.030026,-0.146087,-2.36,14.04,1.79
39,3869,0.949561,0.028490,-0.161319,3.67,5.07,8.82
40,3979,0.953751,0.029474,-0.175438,-344.34,149.06,102.81
41,4079,0.958448,0.028461,-0.186651,6.67,83.07,4.82
42,4189,0.961452,0.027196,-0.194993,2.66,123.06,0.81
43,4289,0.963492,0.028905,-0.203969,-341.34,-59.94,43.81
44,4389,0.966911,0.023107,-0.206326,-565.34,749.06,129.81
45,4489,0.974486,0.023396,-0.211405,-399.35,2265.05,67.80
46,4589,0.977757,0.022818,-0.205121,81.64,3245.04,-48.21
47,4699,0.982204,0.021210,-0.197563,-145.35,1143.05,21.80
48,4799,0.986533,0.020447,-0.184878,48.64,3222.04,-1.21
49,4899,0.988272,0.019579,-0.169297,-128.34,2469.06,-104.19
50,4999,0.991544,0.020746,-0.152483,-71.34,2847.06,-235.19
1,0,0.005304,0.001101,1.000154,-3.34,-16.94,45.81
2,99,0.009517,0.002072,0.999807,-25.41,2.99,-106.26
3,199,0.010571,0.001432,0.999385,-21.41,-13.01,6.74
4,299,0.018078,-0.000375,1.000491,24.61,-48.99,-51.24
5,399,0.021180,-0.000721,1.000918,-1.41,-35.01,73.74
6,499,0.024532,0.000597,1.000255,27.59,-139.01,-21.26
7,599,0.026978,0.002083,0.999601,15.60,-72.00,110.75
8,699,0.021146,0.003602,1.002798,16.59,-160.01,-38.26
9,799,0.024320,0.004930,1.003484,17.59,-77.01,1.74
10,899,0.022366,0.000823,1.002418,-14.40,-169.00,-555.25
11,999,0.028396,0.008079,1.005467,14.59,-269.01,-1331.26
12,1109,0.030574,0.004048,1.006924,-56.40,-1522.00,-898.25
13,1209,0.036050,0.007342,1.006899,136.60,-2371.00,20.75
14,1309,0.045137,0.006755,1.004992,51.61,-3464.99,257.76
15,1419,0.073386,0.010210,0.990700,-435.39,-2292.99,-2890.24
16,1519,0.088334,0.001776,0.991717,-1142.41,-188.01,-6058.26
17,1619,0.075753,0.011966,1.006186,328.59,-2294.01,319.74
18,1719,0.093129,0.011655,1.001346,699.60,-4808.00,3233.75
19,1829,0.121321,0.012636,0.989102,-110.40,-7363.00,-761.25
20,1929,0.149678,0.012371,0.977212,187.60,-8586.00,490.75
21,2029,0.178781,0.008667,0.947897,1754.61,-13709.99,2617.76
22,2139,0.256345,0.001729,0.882404,3333.63,-18801.97,3071.78
23,2239,0.348458,0.003302,0.809120,-895.40,-16945.00,-1049.25
24,2339,0.455519,0.008667,0.712478,522.61,-11773.00,-49.24
25,2439,0.523377,0.004530,0.621835,-491.40,-10109.00,510.75
26,2539,0.566298,-0.003858,0.506924,149.61,-5284.00,-6081.25
27,2649,0.618363,0.001300,0.437282,1028.61,-4176.99,221.76
28,2749,0.637716,-0.007390,0.374241,5457.60,-17194.99,-228.24
29,2849,0.700510,0.035120,0.261862,1503.61,4229.01,2057.76
30,2949,0.739841,0.037616,0.173864,-378.40,-868.00,-122.25
31,3059,0.773748,0.037706,0.101264,22.60,66.00,19.75
32,3159,0.802057,0.037380,0.040616,-4.39,47.01,19.76
33,3259,0.825734,0.037413,-0.011393,-0.41,8.99,-5.26
34,3359,0.846189,0.037222,-0.055655,-6.39,13.01,-0.24
35,3469,0.864327,0.037389,-0.094395,38.60,86.00,18.75
36,3569,0.879122,0.038099,-0.126500,2.61,22.01,-0.24
37,3669,0.892192,0.038300,-0.153551,12.61,83.01,12.76
38,3769,0.903136,0.039990,-0.177461,60.60,266.00,44.75
39,3869,0.910499,0.039925,-0.194432,215.61,847.01,89.76
40,3979,0.918862,0.039430,-0.208273,278.60,232.00,-13.25
41,4079,0.927692,0.038442,-0.220898,50.59,116.99,14.74
42,4189,0.934941,0.038682,-0.230585,450.60,908.00,58.75
43,4289,0.953206,0.037807,-0.245740,435.60,3871.00,370.75
44,4389,0.964977,0.036439,-0.243041,-119.41,6795.99,-184.26
45,4489,0.968849,0.034288,-0.217601,-411.41,6071.99,-504.26
46,4589,0.969668,0.032369,-0.184295,491.60,4312.00,-371.25
47,4699,0.978970,0.034307,-0.157670,1211.59,-726.01,206.74
48,4799,0.979296,0.034435,-0.128465,578.59,179.99,45.74
49,4899,0.978842,0.034654,-0.106497,989.60,504.00,154.75
50,4999,0.992188,0.037532,-0.092970,501.59,1928.99,-17.26
1,0,0.002940,-0.001848,0.999164,9.60,-24.00,5.75
2,99,0.009266,-0.000435,0.999076,-0.39,-8.99,66.76
3,199,0.011841,-0.001705,0.999386,-8.40,-15.00,-30.25
4,299,0.011192,0.006242,0.999082,-140.39,164.01,-161.24
5,399,0.013570,0.003952,0.998146,0.61,-12.99,38.76
6,499,0.019803,0.006894,0.998284,-9.39,22.01,28.76
7,599,0.018289,0.001338,0.997175,14.60,34.00,-46.25
8,699,0.018999,0.001377,0.997513,-31.38,-22.98,-117.23
9,799,0.023282,0.001721,0.998223,-14.39,-33.99,-43.24
10,899,0.016797,0.001994,0.996170,-77.40,-98.00,-411.25
11,999,0.016100,0.002630,0.998033,-18.40,0.00,-377.25
12,1109,0.019921,0.004855,1.000220,76.60,-147.00,-1476.25
13,1209,0.022217,-0.002537,1.001897,34.61,-281.99,-1890.24
14,1309,0.023289,0.001909,0.996455,-98.40,-115.00,-2138.25
15,1419,0.015703,0.003308,1.000765,35.59,-1692.01,-349.26
16,1519,0.020957,0.002923,1.000932,-90.38,-3824.98,131.77
17,1619,0.049502,0.002577,0.996770,-113.39,-3916.99,-924.24
18,1719,0.063840,0.005781,0.995082,15.61,-4166.99,-453.24
19,1829,0.099026,0.005922,0.987459,46.62,-4199.98,-196.23
20,1929,0.137960,0.007672,0.977921,127.62,-3244.98,8.77
21,2029,0.170084,0.010715,0.970985,3.61,-2131.99,-120.24
22,2139,0.198983,0.011691,0.965035,-76.40,-2250.00,-322.25
23,2239,0.217742,0.018874,0.949211,-390.39,-5458.99,-403.24
24,2339,0.245003,0.016630,0.935522,218.61,-7857.00,644.76
25,2439,0.297197,0.018879,0.903068,1046.61,-10002.99,1055.76
26,2539,0.323508,0.014986,0.833715,1532.60,-19991.00,1674.75
27,2649,0.451012,0.019807,0.765958,-3359.37,-13697.97,-4061.22
28,2749,0.518429,-0.004733,0.766959,-383.39,-12169.99,-80.24
29,2849,0.640700,-0.014111,0.655529,2285.62,-13954.98,444.77
30,2949,0.679865,-0.003826,0.542887,2205.62,-5986.98,530.77
31,3059,0.727493,-0.005980,0.429838,9196.60,-20942.00,52.75
32,3159,0.770284,0.016964,0.348377,49.61,3206.01,12.76
33,3259,0.795981,0.010246,0.279629,-466.40,-2366.00,-5.25
34,3359,0.820570,0.011457,0.206966,-18.38,13.02,4.77
35,3469,0.844913,0.013035,0.141449,15.61,71.01,5.76
36,3569,0.865055,0.014267,0.086766,-6.40,-15.00,4.75
37,3669,0.882524,0.015296,0.039316,10.62,-74.98,-17.23
38,3769,0.898160,0.016518,-0.001402,35.59,56.99,-0.26
39,3869,0.909949,0.016843,-0.034858,24.62,-55.98,-18.23
40,3979,0.920245,0.016661,-0.064339,-33.38,-294.98,-27.23
41,4079,0.929508,0.017056,-0.089930,-8.39,-11.99,1.76
42,4189,0.937712,0.017868,-0.111663,-25.39,-78.99,-1.24
43,4289,0.943989,0.019107,-0.129350,-123.40,-32.00,23.75
44,4389,0.949381,0.019557,-0.144694,1.63,33.03,-5.22
45,4489,0.954091,0.019829,-0.158085,-21.40,-49.00,-14.25
46,4589,0.957819,0.019785,-0.169503,0.60,-3.00,9.75
47,4699,0.960989,0.019510,-0.178880,-7.40,32.00,-9.25
48,4799,0.964141,0.019459,-0.187417,-14.40,4.00,5.75
49,4899,0.966344,0.019105,-0.194180,-5.40,27.00,4.75
50,4999,0.968546,0.019243,-0.200551,6.61,6.01,-12.24
1,0,0.004423,0.000569,1.001911,-88.39,198.01,-243.24
2,99,0.011679,0.001143,1.001850,6.58,-24.02,110.73
3,199,0.016731,0.004653,1.001268,36.61,-94.99,187.76
4,299,0.015806,0.003169,0.996049,48.59,91.99,-28.26
5,399,0.015716,0.005093,0.995238,12.61,-68.99,2.76
6,499,0.018935,0.006161,0.996069,-42.40,100.00,-151.25
7,599,0.021122,0.004853,0.996555,-20.41,15.99,-73.26
8,699,0.024006,0.004767,0.997023,2.61,-32.99,180.76
9,799,0.023474,0.003815,0.997989,40.61,-108.99,-10.24
10,899,0.025749,0.004141,0.997913,-38.41,32.99,-120.26
11,999,0.024460,0.001433,0.998598,8.60,-201.00,-271.25
12,1109,0.029975,0.003234,1.000408,29.61,-142.99,-510.24
13,1209,0.027026,0.001907,0.999676,-170.41,72.99,72.74
14,1309,0.031698,0.001567,1.003008,101.59,-152.01,-11.26
15,1419,0.025671,-0.003263,1.007104,-6.40,-2366.00,-221.25
16,1519,0.027104,0.001072,1.006887,53.59,-4312.01,38.74
17,1619,0.043117,0.000985,1.003920,4.60,-5232.00,-561.25
18,1719,0.085494,0.000875,0.993286,75.60,-3782.00,-41.25
19,1829,0.111004,0.003821,0.988696,-66.39,-1664.99,-675.24
20,1929,0.137558,0.004988,0.982671,37.59,-1886.01,175.74
21,2029,0.163040,0.003289,0.977440,18.59,-2206.01,-208.26
22,2139,0.183839,0.003639,0.971474,78.60,-3536.00,-23.25
23,2239,0.208788,0.005749,0.962740,81.61,-5725.00,34.76
24,2339,0.252572,0.004796,0.945356,123.59,-6503.01,215.74
25,2439,0.293962,0.005835,0.928052,306.59,-7106.01,245.74
26,2539,0.339252,0.001134,0.902816,2656.61,-10029.99,3406.76
27,2649,0.421840,0.012464,0.845787,-424.40,-13839.00,-685.25
28,2749,0.485191,0.020354,0.783800,-3207.41,-12277.01,-578.26
29,2849,0.567568,0.026805,0.704981,-1436.40,-10232.00,-722.25
30,2949,0.608218,0.013026,0.633060,81.60,-8712.00,-1158.25
31,3059,0.714858,0.019514,0.540909,781.59,-7650.01,451.74
32,3159,0.755204,0.030815,0.440809,516.60,-1777.00,-112.25
33,3259,0.783144,0.032236,0.377056,312.59,-3821.01,301.74
34,3359,0.803433,0.028152,0.313436,3143.60,-10042.00,292.75
35,3469,0.935358,0.122038,0.012991,646.61,-7302.99,-2155.24
36,3569,0.938271,0.110142,-0.035405,-70.40,-203.00,2.75
37,3669,0.941718,0.098676,-0.076761,-35.39,-33.99,-10.24
38,3769,0.944611,0.088874,-0.112134,-10.40,-12.00,4.75
39,3879,0.946832,0.081440,-0.141761,-31.40,-25.00,-21.25
40,3979,0.948958,0.074718,-0.167988,7.60,40.00,7.75
41,4079,0.951040,0.068839,-0.189128,-54.40,-45.00,-10.25
42,4189,0.952040,0.063806,-0.208323,13.59,51.99,21.74
43,4289,0.953292,0.059564,-0.224255,-7.42,25.98,-4.27
44,4389,0.954394,0.056215,-0.237540,52.59,120.99,16.74
45,4489,0.955532,0.053423,-0.249364,14.60,51.00,9.75
46,4589,0.954906,0.056433,-0.266061,48.59,-26.01,32.74
47,4699,0.956717,0.053132,-0.272599,-4.43,-21.03,-1.28
48,4799,0.957140,0.050418,-0.278615,96.59,104.99,22.74
49,4899,0.957958,0.047819,-0.282995,33.60,58.00,0.75
50,4999,0.958763,0.046378,-0.286792,76.59,139.99,28.74
1,0,0.005833,-0.000347,0.999054,27.60,-67.00,21.75
2,99,0.011743,0.002233,0.998543,-45.41,22.99,-40.26
3,199,0.015118,-0.000024,0.999629,31.60,-25.00,14.75
4,299,0.020551,0.003588,0.999398,6.61,-15.99,42.76
5,399,0.023631,0.002519,0.999641,4.59,-1.01,81.74
6,499,0.027676,0.004065,0.999189,-23.41,11.99,-16.26
7,599,0.027856,0.002394,0.999811,0.59,-4.01,-90.26
8,699,0.030261,0.003610,0.999351,-3.40,-2.00,24.75
9,799,0.031536,0.001769,0.999528,40.59,-65.01,-37.26
10,899,0.030185,0.002018,0.999459,42.60,-119.00,-95.25
11,999,0.036525,0.004059,0.998521,96.58,-187.02,56.73
12,1109,0.039827,0.005795,0.998017,-48.40,47.00,-173.25
13,1209,0.037360,0.002638,0.998778,47.59,-15.01,-236.26
14,1309,0.038322,0.011472,0.997686,-11.39,-115.99,83.76
15,1419,0.036868,0.005211,1.009997,346.60,50.00,-2032.25
16,1519,0.044220,0.008001,1.009474,55.60,-180.00,-1636.25
17,1619,0.050836,0.002846,1.017837,-50.41,55.99,-2021.26
18,1719,0.060396,0.002768,1.014509,119.60,-175.00,-979.25
19,1829,0.063285,0.002885,1.014097,-83.41,-208.01,-1439.26
20,1929,0.070501,-0.009156,1.029219,-143.41,-264.01,-1270.26
21,2029,0.060485,-0.011517,1.039051,235.59,-223.01,-1267.26
22,2139,0.050965,-0.007445,1.037466,154.60,-5174.00,217.75
23,2239,0.067939,-0.008488,1.025957,11.60,-7345.00,-612.25
24,2339,0.107746,-0.002984,1.008630,160.59,-7196.01,-311.26
25,2439,0.162675,0.001932,0.988445,1145.59,-3201.01,1565.74
26,2539,0.201419,0.002302,0.972039,-161.39,-672.99,-495.24
27,2649,0.205585,-0.004890,0.968787,2652.60,-4104.00,-2822.25
28,2749,0.237380,0.008332,0.949837,7001.60,-9247.00,-4766.25
29,2849,0.356067,0.234775,0.841865,8967.60,-5416.00,-8152.25
30,2949,0.394128,0.263298,0.827432,4066.59,-8446.01,1518.74
31,3059,0.413498,0.248322,0.759885,3115.59,-18855.01,9570.74
32,3159,0.474036,0.205435,0.657572,5306.60,-27517.00,11442.75
33,3259,0.588042,0.199285,0.529738,1308.59,-11961.01,68.74
34,3359,0.632029,0.173147,0.446108,-196.41,-5041.01,-95.26
35,3469,0.677310,0.142689,0.350323,1258.60,-15541.00,-804.25
36,3569,0.733597,0.126780,0.210769,-52.40,-1471.00,95.75
37,3669,0.758480,0.114795,0.121940,-5.40,-2002.00,10.75
38,3769,0.786534,0.103711,0.035320,-2.39,22.01,15.76
39,3879,0.806698,0.095022,-0.033161,-20.41,77.99,5.74
40,3979,0.824754,0.086629,-0.092396,-7.40,156.00,8.75
41,4079,0.839899,0.079275,-0.141940,2.59,-60.01,6.74
42,4189,0.852572,0.074525,-0.184143,32.59,-104.01,-12.26
43,4289,0.863380,0.070049,-0.220712,-37.41,-8.01,8.74
44,4389,0.872035,0.066848,-0.251210,18.58,-16.02,-12.27
45,4489,0.879631,0.063395,-0.278195,-13.41,-25.01,2.74
46,4589,0.886215,0.060973,-0.300162,-23.42,-63.02,5.73
47,4699,0.893405,0.057540,-0.317918,34.59,69.99,-6.26
48,4799,0.897282,0.055429,-0.334476,-10.41,-69.01,-5.26
49,4899,0.901018,0.053157,-0.348385,-20.41,-4.01,6.74
50,4999,0.903808,0.051282,-0.360153,-11.41,-8.01,-5.26
1,0,-0.000448,-0.000036,0.999805,-5.40,0.00,-53.25
2,99,-0.000078,0.000080,1.000298,30.58,4.98,-209.27
3,199,0.000145,0.000820,0.999711,18.61,-52.99,-94.24
4,299,-0.001387,-0.001152,1.000218,62.58,-99.02,-6.27
5,399,-0.005948,-0.004311,1.000045,74.60,-249.00,116.75
6,499,-0.003983,-0.004506,0.998122,400.60,-566.00,-90.25
7,599,0.003930,-0.007143,1.002146,197.59,-282.01,-1874.26
8,699,-0.015199,-0.003562,1.005822,180.59,-1890.01,-1778.26
9,799,-0.014209,-0.000812,1.007848,458.59,-3323.01,315.74
10,899,0.016222,-0.009020,1.016858,1066.60,-2845.00,-1576.25
11,999,0.033006,0.002496,0.962022,-3300.41,-215.01,-92.26
12,1109,0.018342,0.017192,0.945441,6505.59,-10198.01,-1693.26
13,1209,0.072895,0.054531,0.929187,9732.61,-14646.99,326.76
14,1309,0.106557,0.068142,0.909695,-2182.39,-20138.99,-3163.24
15,1419,0.186714,0.083812,0.874083,-480.41,-19912.01,5463.74
16,1519,0.296320,0.090760,0.799703,2422.59,-18614.01,8875.74
17,1619,0.438155,0.084270,0.696050,1774.60,-16981.00,6440.75
18,1719,0.556628,0.086974,0.543639,1348.59,-3941.01,739.74
19,1829,0.586962,0.066513,0.489364,-324.41,-8450.01,1541.74
20,1929,0.664528,0.058643,0.360485,3807.59,-13866.01,-773.26
21,2029,0.695926,0.059460,0.271848,-568.40,-346.00,114.75
22,2139,0.733289,0.054479,0.192991,15.61,110.01,-0.24
23,2239,0.767959,0.049421,0.123271,-13.42,-180.02,-20.27
24,2339,0.798143,0.044810,0.063149,5.60,-75.00,-8.25
25,2439,0.823835,0.041092,0.012173,3.61,-80.99,-7.24
26,2539,0.845747,0.037694,-0.032365,-19.41,-102.01,-1.26
27,2649,0.864519,0.034677,-0.069673,-18.42,-62.02,-0.27
28,2749,0.879449,0.032443,-0.101696,-1.41,42.99,-1.26
29,2849,0.891444,0.030873,-0.127616,2.59,54.99,-12.26
30,2949,0.907170,0.028404,-0.153676,35.60,413.00,6.75
31,3049,0.918816,0.027733,-0.170004,205.59,1020.99,-6.26
32,3159,0.929978,0.025771,-0.185842,461.61,2379.01,-101.24
33,3259,0.939484,0.022218,-0.188886,59.59,2458.99,-36.26
34,3359,0.951520,0.022530,-0.190301,-66.40,4511.00,-45.25
35,3469,0.957227,0.020836,-0.172681,-336.39,5439.01,30.76
36,3569,0.951568,0.019341,-0.142781,431.59,-99.01,35.74
37,3669,0.966168,0.016697,-0.130220,1013.61,1664.01,-54.24
38,3769,0.977460,0.017178,-0.118096,330.59,2953.99,-586.26
39,3879,0.977353,0.023281,-0.093362,-450.41,4925.99,-1006.26
40,3979,0.975322,0.017886,-0.052801,765.59,-1179.01,66.74
41,4079,0.987475,0.020477,-0.041762,1026.59,-700.01,141.74
42,4189,0.989491,0.023760,-0.023260,-63.41,1938.99,-71.26
43,4289,0.997248,0.027155,-0.009950,136.59,-354.01,15.74
44,4389,0.998330,0.029253,0.003103,274.60,-161.00,39.75
45,4489,0.998884,0.029920,0.015058,273.59,-15.01,15.74
46,4589,1.000507,0.031291,0.024048,220.57,-13.03,30.72
47,4699,0.998445,0.033300,0.033155,146.59,108.99,34.74
48,4799,0.997607,0.034495,0.041078,-11.42,-155.02,-49.27
49,4899,0.997463,0.037121,0.047264,-48.42,212.98,59.73
50,4999,0.994648,0.038200,0.055506,-33.44,229.96,13.71
1,0,-0.002828,-0.001098,0.999695,-8.41,-5.01,-11.26
2,99,-0.005983,-0.001518,0.999509,-4.40,-8.00,-194.25
3,199,-0.006284,-0.002626,0.998967,17.60,-8.00,-161.25
4,299,0.000070,-0.002799,0.995667,-35.41,-84.01,-942.26
5,399,0.003823,-0.004759,0.995005,40.59,-44.01,-77.26
6,499,0.004231,-0.005179,0.995962,21.62,-56.98,-257.23
7,599,0.002654,-0.003156,0.996410,105.61,-85.99,-1167.24
8,699,-0.002000,0.000376,0.993879,-50.40,-46.00,-1335.25
9,799,-0.002020,-0.001803,0.997916,-69.40,-156.00,-1956.25
10,899,-0.003813,0.000628,1.002593,23.58,-893.02,-2030.27
11,999,-0.007040,0.005204,1.003327,50.59,-3310.01,-246.26
12,1109,0.006257,0.004204,1.002194,21.59,-5162.01,-233.26
13,1209,0.029425,0.002970,0.998044,-148.41,-6753.01,-1354.26
14,1309,0.068289,0.005602,0.991972,73.60,-6015.00,-389.25
15,1419,0.113848,0.005861,0.979962,243.61,-5481.00,-63.24
16,1519,0.148783,0.001302,0.968546,334.60,-6236.00,208.75
17,1619,0.185655,-0.000504,0.950345,1177.59,-8689.01,1456.74
18,1719,0.239848,-0.005151,0.889135,2005.60,-18223.00,1655.75
19,1829,0.355675,-0.004927,0.862101,-1984.40,-12312.00,-1780.25
20,1929,0.413424,0.005023,0.807719,2212.59,-8971.01,2867.74
21,2029,0.489903,0.007255,0.728315,3984.59,-9561.01,778.74
22,2139,0.558719,0.007669,0.640315,3667.61,-9331.99,308.76
23,2239,0.703327,-0.002269,0.584869,4212.60,-11338.00,-1282.25
24,2339,0.733409,0.000050,0.516829,-639.40,167.00,42.75
25,2439,0.772254,0.004621,0.442533,-64.40,-459.00,35.75
26,2539,0.806445,0.007609,0.379419,-33.39,-210.99,83.76
27,2649,0.837283,0.009618,0.323648,-95.40,-498.00,-67.25
28,2749,0.862250,0.011454,0.276517,-179.40,-430.00,-30.25
29,2849,0.885339,0.012227,0.235430,-184.41,-429.01,-32.26
30,2949,0.902677,0.014459,0.200507,-84.40,-219.00,-22.25
31,3059,0.917798,0.015751,0.170162,-21.41,-7.01,-2.26
32,3159,0.929753,0.016502,0.144315,68.59,294.99,59.74
33,3259,0.940062,0.018386,0.123406,29.60,93.00,-0.25
34,3359,0.950382,0.018961,0.105122,54.60,127.00,10.75
35,3469,0.961570,0.018224,0.090806,305.59,989.99,61.74
36,3569,0.964707,0.019721,0.080634,191.60,-51.00,-10.25
37,3669,0.970139,0.019730,0.072336,-4.41,17.99,0.74
38,3769,0.974757,0.019481,0.065776,142.60,253.00,40.75
39,3869,0.978736,0.019270,0.060237,165.58,305.98,11.73
40,3979,0.982357,0.023155,0.054412,162.60,491.00,424.75
41,4079,0.988218,0.019664,0.052409,-79.40,1630.00,1307.75
42,4189,0.988585,0.014573,0.055064,-205.41,30.99,-102.26
43,4289,0.989684,0.012571,0.056424,-93.42,-107.02,-136.27
44,4389,0.989282,0.012718,0.057085,-723.42,233.98,175.73
45,4489,0.989398,0.005648,0.059753,-1045.41,-234.01,-216.26
46,4589,0.991053,0.006101,0.058890,-1381.40,-1092.00,-838.25
47,4699,0.991782,0.005168,0.056490,-1190.42,-952.02,-814.27
48,4799,0.992219,0.011828,0.046704,-1187.41,-1095.01,1.74
49,4899,0.991510,0.015584,0.038350,-946.42,-545.02,-103.27
50,4999,0.996748,0.014840,0.032457,-931.41,-416.01,-11.26
1,0,-0.001070,0.000788,0.999933,8.59,-2.01,-149.26
2,99,0.001480,0.001788,0.999071,29.59,-40.01,-340.26
3,199,0.001378,0.000879,0.998502,37.58,-15.02,-90.27
4,299,0.002536,0.001774,0.999319,43.61,-55.99,-188.24
5,399,0.023406,-0.000725,0.999190,226.60,-220.00,-2108.25
6,499,0.016774,0.003193,0.995564,178.60,-194.00,-3552.25
7,609,0.009288,0.003557,0.993874,1030.60,128.00,743.75
8,709,0.009992,0.014267,0.981451,-1192.40,-127.00,-552.25
9,809,0.012678,-0.003271,1.008116,-455.41,210.99,-280.26
10,909,0.014265,0.001066,1.006557,-126.40,157.00,118.75
11,1009,0.005141,0.005008,1.001460,-93.40,-51.00,-425.25
12,1119,-0.009866,-0.001290,1.008572,138.59,-5123.01,981.74
13,1219,0.005430,-0.002524,1.002019,-76.41,-7841.01,988.74
14,1319,0.045843,0.002012,0.992696,-10.40,-7154.00,410.75
15,1429,0.087847,0.004457,0.982573,74.59,-5826.01,82.74
16,1529,0.128916,-0.000642,0.971040,153.59,-5470.01,-43.26
17,1629,0.167870,-0.000435,0.957446,23.59,-6620.01,-395.26
18,1729,0.204937,-0.010934,0.937340,2657.59,-9780.01,3677.74
19,1839,0.251423,-0.014200,0.881029,4902.61,-19490.99,5114.76
20,1939,0.348943,-0.010458,0.800205,4047.61,-22424.99,3061.76
21,2039,0.448259,-0.008632,0.690728,1880.59,-16641.01,-186.26
22,2149,0.559466,-0.006476,0.553928,-2771.41,-78.01,-3456.26
23,2249,0.613196,-0.006822,0.486391,-452.41,-269.01,-21.26
24,2349,0.672509,-0.003472,0.415453,-104.39,-349.99,-38.24
25,2449,0.722155,0.000345,0.353910,-18.41,-58.01,-13.26
26,2549,0.763622,0.004011,0.302899,32.59,98.99,4.74
27,2659,0.798539,0.011412,0.256903,315.59,-277.01,-6.26
28,2759,0.828859,0.013528,0.220241,-7.42,17.98,-9.27
29,2859,0.855327,0.014887,0.189079,53.58,55.98,10.73
30,2959,0.877038,0.016353,0.162756,-5.41,35.99,2.74
31,3059,0.895401,0.017380,0.141095,6.59,32.99,-4.26
32,3169,0.910808,0.018234,0.121970,6.60,36.00,-2.25
33,3269,0.923757,0.018888,0.106336,13.60,72.00,12.75
34,3369,0.935130,0.019168,0.092333,-36.41,121.99,-4.26
35,3479,0.944889,0.019901,0.080339,-13.40,-0.00,7.75
36,3579,0.952653,0.020340,0.071572,-11.41,17.99,-3.26
37,3679,0.959800,0.020805,0.063259,-1.44,63.96,-3.29
38,3779,0.965528,0.019168,0.057383,-88.42,249.98,-10.27
39,3879,0.970929,0.020121,0.050613,-5.40,70.00,1.75
40,3989,0.976746,0.020839,0.045170,-18.41,510.99,8.74
41,4089,0.979273,0.021467,0.042960,18.59,61.99,1.74
42,4199,0.979884,0.018028,0.044726,18.60,154.00,-9.25
43,4299,0.982417,0.019591,0.042344,129.59,155.99,84.74
44,4399,0.984478,0.019180,0.040869,177.58,141.98,143.73
45,4499,0.987860,0.019179,0.039378,220.60,181.00,165.75
46,4599,0.989673,0.018830,0.038403,56.60,4.00,-14.25
47,4709,0.990956,0.018697,0.037721,41.57,85.97,47.72
48,4809,0.991957,0.018604,0.036940,-34.40,-119.00,-141.25
49,4909,0.993613,0.019769,0.036093,-13.40,-24.00,-29.25
50,5009,0.993464,0.018727,0.037332,-43.41,8.99,15.74
1,0,0.000175,0.005567,0.997626,-15.40,-17.00,-105.25
2,99,0.001788,0.010007,0.998336,-48.40,-28.00,-78.25
3,199,0.003251,0.015336,0.997512,4.60,17.00,35.75
4,299,0.004019,0.017047,0.997873,34.60,-2.00,-80.25
5,399,0.006063,0.021485,0.997118,-38.41,-25.01,-152.26
6,499,0.001721,0.024269,0.995451,-82.40,-201.00,-642.25
7,609,0.003359,0.025537,0.996909,-685.40,-874.00,-419.25
8,709,0.006289,0.023813,0.996482,-1049.40,-1467.00,-347.25
9,809,0.022550,0.009256,1.009083,-225.39,-406.99,-650.24
10,909,0.027765,0.009736,1.009137,18.59,94.99,-406.26
11,1009,0.026283,0.008569,1.011673,-48.40,-220.00,-1219.25
12,1119,0.028943,0.013511,1.004325,-61.39,-643.99,-1053.24
13,1219,0.033876,0.018058,0.995480,-69.41,-343.01,-941.26
14,1319,0.045266,0.014105,0.993765,-195.41,-640.01,-1051.26
15,1429,0.044162,0.015799,0.994872,-12.40,-2304.00,-26.25
16,1529,0.052269,0.014547,0.994164,10.59,-3622.01,-49.26
17,1629,0.075786,0.014325,0.989406,34.59,-3608.01,-116.26
18,1729,0.106836,0.014978,0.984941,45.59,-2435.01,-10.26
19,1839,0.138501,0.012128,0.981566,29.59,-719.01,389.74
20,1939,0.140001,0.012562,0.982049,-22.41,-1826.01,-360.26
21,2039,0.151879,0.011319,0.979218,121.61,-5580.00,212.76
22,2149,0.177776,0.007169,0.967291,331.59,-8550.01,193.74
23,2249,0.221524,-0.004526,0.951366,516.59,-10746.01,971.74
24,2349,0.269055,-0.001630,0.901960,1393.61,-16822.99,1542.76
25,2449,0.355251,-0.001641,0.836948,2232.60,-16837.00,1167.75
26,2549,0.457119,0.000181,0.749022,3228.61,-15565.99,665.76
27,2659,0.577764,0.012551,0.615234,1470.61,-11989.00,-590.24
28,2759,0.625748,0.023322,0.525299,211.61,-7562.99,-4347.24
29,2859,0.685832,0.027973,0.435469,67.60,-4961.00,-105.25
30,2959,0.725350,0.040843,0.341518,-325.40,-3654.00,-757.25
31,3069,0.758263,0.039881,0.285664,71.59,2028.99,17.74
32,3169,0.797409,0.045655,0.222441,-462.39,-687.99,-26.24
33,3269,0.826727,0.049556,0.171430,-2.40,25.00,13.75
34,3369,0.851410,0.053696,0.128583,-28.38,-70.98,-21.23
35,3479,0.873068,0.057142,0.090918,1.59,10.99,-0.26
36,3579,0.890854,0.060235,0.059544,11.59,160.99,20.74
37,3679,0.906540,0.062590,0.033663,-21.40,115.00,13.75
38,3779,0.919324,0.064701,0.011866,1.59,34.99,-14.26
39,3879,0.930959,0.066441,-0.006753,-25.40,-75.00,-19.25
40,3989,0.941729,0.067096,-0.023330,-18.39,494.01,40.76
41,4089,0.950425,0.068495,-0.037256,19.61,79.01,22.76
42,4199,0.955509,0.069135,-0.046566,-16.40,130.00,8.75
43,4299,0.961717,0.070008,-0.055907,0.60,54.00,7.75
44,4399,0.964741,0.069652,-0.061266,10.59,481.99,27.74
45,4499,0.968960,0.070210,-0.067341,8.61,32.01,5.76
46,4599,0.973754,0.071087,-0.073163,4.60,23.00,-7.25
47,4709,0.978763,0.071429,-0.078918,-58.40,327.00,27.75
48,4809,0.981812,0.071409,-0.081649,-22.40,-165.00,-35.25
49,4909,0.984294,0.071410,-0.084374,32.60,140.00,21.75
50,5009,0.985928,0.070825,-0.085426,107.60,-84.00,-37.25
1,0,-0.003853,0.001740,0.999018,-25.40,-39.00,-34.25
2,99,-0.006524,0.000254,1.001149,-109.39,-247.99,-138.24
3,199,0.002851,-0.000387,1.004627,-84.38,-88.98,-375.23
4,299,0.002947,0.000111,1.003464,6.62,5.02,-158.23
5,399,0.001288,0.003465,1.003591,-45.40,-26.00,-125.25
6,499,0.003211,0.002379,1.004066,-26.39,-26.99,28.76
7,599,0.009954,0.008139,1.004690,-45.39,-63.99,-130.24
8,699,0.015740,0.006040,1.004286,-14.40,-76.00,-296.25
9,799,0.015422,0.010024,1.003485,-38.38,3.02,-343.23
10,899,0.014071,0.005280,1.008626,-127.40,-208.00,-620.25
11,999,0.014955,0.004929,1.006094,-27.39,-37.99,-880.24
12,1109,0.014754,0.005966,1.003996,-73.41,-757.01,-229.26
13,1209,0.019784,0.006885,1.002140,-25.40,-1075.00,-138.25
14,1309,0.029497,0.003033,1.004663,132.60,-1207.00,-459.25
15,1419,0.030045,0.004942,1.005289,22.62,-2355.98,-246.23
16,1519,0.038824,0.002041,1.002799,45.60,-3773.00,210.75
17,1619,0.056082,0.001809,0.998852,36.60,-4834.00,-160.25
18,1719,0.078570,0.002692,0.993629,60.61,-5941.00,-480.24
19,1829,0.116837,0.003846,0.983312,182.60,-7215.00,694.75
20,1929,0.162804,0.006016,0.966028,63.60,-7593.00,-190.25
21,2029,0.199972,0.008099,0.945605,-5.41,-9165.01,-332.26
22,2139,0.272837,0.012543,0.907225,550.62,-11267.98,978.77
23,2239,0.340833,0.007990,0.854351,391.61,-11032.99,125.76
24,2339,0.419998,0.007873,0.795749,467.60,-10712.00,109.75
25,2439,0.500709,0.006143,0.734272,1466.60,-10790.00,144.75
26,2539,0.611172,0.008152,0.638420,521.61,-9195.99,-2690.24
27,2649,0.657715,0.014859,0.566706,949.61,-6259.99,-4865.24
28,2749,0.781376,0.037131,0.475023,1146.61,-9223.99,-854.24
29,2849,0.792720,0.054817,0.404930,-620.39,-438.99,1432.76
30,2949,0.877363,0.054212,0.354194,753.61,-4213.99,-76.24
31,3059,0.894542,0.062946,0.293381,89.61,550.01,552.76
32,3159,0.908668,0.073024,0.235483,275.62,-206.98,67.77
33,3259,0.919284,0.076116,0.193209,407.62,-168.98,29.77
34,3359,0.929901,0.083120,0.153083,258.62,-252.98,11.77
35,3469,0.939456,0.085613,0.120313,379.61,-115.99,14.76
36,3569,0.947540,0.090716,0.090517,254.61,-75.99,34.76
37,3669,0.953955,0.094743,0.064202,-1.39,-93.99,-11.24
38,3769,0.959517,0.098221,0.040662,-2.39,-109.99,-8.24
39,3879,0.964025,0.100591,0.022430,69.61,41.01,10.76
40,3979,0.968846,0.103228,0.005046,12.61,-31.99,8.76
41,4079,0.972980,0.105048,-0.008778,79.61,37.01,17.76
42,4189,0.976146,0.106522,-0.019888,57.61,102.01,60.76
43,4289,0.979039,0.107702,-0.029587,80.61,101.01,12.76
44,4389,0.980564,0.109419,-0.039810,193.61,42.01,61.76
45,4489,0.982684,0.111007,-0.047253,-15.38,6.02,17.77
46,4589,0.984138,0.112704,-0.052958,8.60,165.00,71.75
47,4699,0.984330,0.114256,-0.057898,-8.39,6.01,35.76
48,4799,0.985647,0.114129,-0.061988,103.61,117.01,20.76
49,4899,0.986382,0.114406,-0.064915,-25.40,-16.00,9.75
50,4999,0.987538,0.114641,-0.068391,17.61,49.01,-8.24
1,0,0.002830,0.005568,1.000007,-101.39,-23.99,187.76
2,99,0.002032,0.012076,0.998236,-26.39,58.01,-159.24
3,199,0.003165,0.014788,0.999075,-2.39,51.01,-162.24
4,299,0.005246,0.017002,0.999238,31.61,41.01,-179.24
5,399,0.006722,0.020075,0.998938,129.63,47.03,-155.22
6,499,0.007610,0.022356,0.999782,197.61,55.01,-215.24
7,599,0.007798,0.023417,1.000993,230.62,41.02,96.77
8,699,0.007627,0.026113,1.001638,416.61,70.01,-9.24
9,799,0.012060,0.033385,0.996455,581.62,23.02,-104.23
10,899,0.012514,0.037314,0.993423,254.62,5.02,-127.23
11,999,0.011489,0.041441,0.996137,482.61,-92.99,-640.24
12,1109,0.001885,0.048995,0.985572,-20.39,26.01,-2074.24
13,1209,0.008442,0.049173,0.986919,-451.38,-150.98,-968.23
14,1309,0.014438,0.051631,1.000606,-576.39,-2187.99,-252.24
15,1419,0.024221,0.056046,0.996036,-1335.38,-3609.98,-1489.23
16,1519,0.042736,0.055990,0.997718,-2155.38,-3450.98,-551.23
17,1619,0.035860,0.080808,0.944069,19.61,-3400.99,-159.24
18,1719,0.051787,0.070574,0.945965,27.64,-5113.96,304.79
19,1829,0.093670,0.062846,0.939593,309.62,-6955.98,1180.77
20,1929,0.140293,0.044906,0.942124,646.61,-7309.99,906.76
21,2029,0.174942,0.032550,0.930158,535.61,-7562.99,960.76
22,2139,0.229717,0.019795,0.914145,2285.61,-8658.99,2657.76
23,2239,0.282959,0.013970,0.883066,1367.61,-8272.99,1387.76
24,2339,0.350810,0.016380,0.841617,1399.62,-10045.98,1525.77
25,2439,0.416503,0.018136,0.781866,1119.60,-11685.00,671.75
26,2539,0.504843,0.015178,0.711358,1057.61,-12179.00,-43.24
27,2649,0.554096,0.015063,0.634543,-2704.40,-11463.00,-1188.25
28,2749,0.607864,0.008154,0.549238,1031.61,-11342.99,-4970.24
29,2849,0.658217,0.017021,0.460285,2242.62,-12754.98,-523.23
30,2949,0.713340,0.028531,0.353200,-609.40,3912.00,1792.75
31,3059,0.755562,0.035093,0.281458,-23.38,-542.98,-31.23
32,3159,0.792220,0.041769,0.219525,7.61,-112.99,-7.24
33,3259,0.822244,0.048120,0.167084,-3.39,-14.99,-7.24
34,3359,0.847728,0.053446,0.122436,21.63,120.03,4.78
35,3469,0.869042,0.058065,0.085181,-4.38,5.02,12.77
36,3569,0.887414,0.061661,0.053038,-25.39,-86.99,-23.24
37,3669,0.904422,0.064791,0.025002,-16.38,-18.98,13.77
38,3769,0.917414,0.066517,0.002014,6.60,332.00,25.75
39,3869,0.928769,0.068608,-0.017288,35.62,141.02,19.77
40,3979,0.938219,0.070769,-0.033530,6.61,-53.99,-9.24
41,4079,0.946526,0.073210,-0.047903,-11.38,120.02,29.77
42,4189,0.951848,0.074406,-0.057117,24.60,90.00,-9.25
43,4289,0.957873,0.075441,-0.066890,-13.38,44.02,3.77
44,4389,0.963122,0.076779,-0.075454,0.61,-69.99,-25.24
45,4489,0.967749,0.077550,-0.082989,-7.38,104.02,15.77
46,4589,0.970620,0.078608,-0.088075,-4.38,-18.98,-5.23
47,4699,0.974085,0.078775,-0.093534,-6.39,72.01,1.76
48,4799,0.976976,0.079374,-0.097515,-15.38,-69.98,-13.23
49,4899,0.979580,0.079774,-0.101265,-12.38,126.02,19.77
50,4999,0.981115,0.080278,-0.104526,-50.39,-117.99,-11.24
1,0,0.000523,0.000056,1.000007,-28.38,-11.98,-32.23
2,99,0.001133,0.001257,0.999554,-9.39,17.01,-78.24
3,199,0.001028,0.001015,0.999628,0.61,-14.99,-166.24
4,299,0.002770,0.002530,1.000166,-0.39,-12.99,-258.24
5,399,0.001688,0.003690,1.000221,-2.38,-5.98,-102.23
6,499,0.004485,-0.003949,1.009295,-229.39,45.01,-218.24
7,599,0.009169,-0.005772,1.009629,-49.38,9.02,-44.23
8,699,0.008867,-0.002909,1.006928,39.62,1.02,-310.23
9,799,0.008151,-0.002234,1.005840,23.60,-76.00,-460.25
10,899,0.006664,-0.001495,1.002865,9.61,-138.99,-608.24
11,999,0.003972,-0.003979,1.002332,-14.38,-89.98,-414.23
12,1109,0.005255,-0.002594,1.003527,-57.39,-278.99,-348.24
13,1209,-0.000980,-0.002735,1.002052,112.59,-1440.01,-434.26
14,1309,0.005641,-0.003642,1.001897,1.61,-2698.99,-26.24
15,1419,0.021669,-0.004944,1.001693,-84.39,-2537.99,-789.24
16,1519,0.038022,-0.004274,1.000566,-123.38,-2682.98,-712.23
17,1619,0.053313,-0.001508,1.001312,-77.38,-4335.98,270.77
18,1719,0.083797,-0.002489,0.994475,93.61,-5103.99,276.76
19,1829,0.116154,-0.000375,0.985771,45.60,-5169.00,15.75
20,1929,0.154442,-0.000537,0.974417,58.62,-5482.98,88.77
21,2029,0.202642,-0.000035,0.957863,95.61,-5016.00,248.76
22,2139,0.248977,0.001546,0.942034,0.60,-3793.00,-182.25
23,2239,0.290010,0.002377,0.924881,84.61,-4029.99,474.76
24,2339,0.337504,0.002938,0.903453,55.61,-4465.99,-19.24
25,2439,0.379046,0.003395,0.881815,218.62,-5000.98,299.77
26,2539,0.421955,0.005121,0.854047,553.60,-6313.00,421.75
27,2649,0.469561,0.006625,0.814826,-21.38,-7033.98,39.77
28,2749,0.513084,0.007262,0.762958,-173.38,-8309.98,-190.23
29,2849,0.563519,0.009634,0.703929,-452.39,-9230.99,-563.24
30,2949,0.618839,0.010571,0.648517,-542.39,-8892.99,-686.24
31,3059,0.672618,0.007027,0.575819,799.62,-9200.98,266.77
