sample_num,timestamp_ms,acc_x(g),acc_y(g),acc_z(g),gyro_x(LSB),gyro_y(LSB),gyro_z(LSB)
1,0,0.012926,-0.000075,1.000152,-11.90,-2.60,-2.25
2,99,0.023564,-0.001201,0.999732,-1.92,5.38,-25.27
3,199,0.030940,-0.001792,1.001389,-3.92,5.38,30.73
4,299,0.039206,-0.001160,1.001772,-6.92,3.38,-24.27
5,399,0.045884,-0.001208,1.002171,-6.93,1.37,6.72
6,499,0.051341,-0.002017,1.004195,1.09,4.39,-19.26
7,599,0.048563,-0.042879,1.031806,-5378.92,-97.62,502.73
8,699,0.024687,-0.087957,1.014700,11556.09,-179.61,34.74
9,799,0.119767,0.209909,0.890973,4218.08,-8711.62,-184.27
10,899,0.132214,0.255562,0.870638,5139.08,142.38,109.73
11,999,0.124611,0.236397,0.903543,-183.91,-14.61,2.74
12,1109,0.117124,0.221022,0.922723,-42.91,19.39,-41.26
13,1209,0.109350,0.206837,0.932196,-6.92,-4.62,-6.27
14,1309,0.104682,0.194650,0.942153,-0.92,-10.62,9.73
15,1419,0.100806,0.184457,0.950359,-0.93,6.37,-1.28
16,1519,0.104140,0.149938,1.036839,1095.07,-41.63,-37.28
17,1619,0.106552,0.141800,1.039412,15837.08,1199.38,-599.27
18,1719,0.078922,0.199391,0.944059,11133.07,-306.63,141.72
19,1829,0.084165,0.249791,0.931050,-2318.92,588.38,1164.73
20,1929,0.070165,0.290213,0.909611,-81.92,285.38,-628.27
21,2029,0.066120,0.321294,0.901550,652.08,-112.62,243.73
22,2139,0.068907,0.350167,0.893069,114.08,56.38,-141.27
23,2239,0.065820,0.370589,0.891115,37.08,48.38,-120.27
24,2339,0.067755,0.390145,0.888465,242.07,-78.63,177.72
25,2439,0.068997,0.406437,0.886634,-126.93,84.37,-187.28
26,2539,0.067031,0.418767,0.886378,84.09,-35.61,86.74
27,2649,0.069279,0.431700,0.883358,43.07,11.37,-14.28
28,2749,0.067582,0.440368,0.882531,-58.92,45.38,-105.27
29,2849,0.067935,0.449366,0.881041,146.08,-56.62,132.73
30,2949,0.068949,0.456941,0.878749,-100.92,45.38,-116.27
31,3049,0.066496,0.462537,0.878393,3.07,-11.63,35.72
32,3159,0.067835,0.468941,0.876718,2.08,4.38,16.73
33,3259,0.066319,0.472810,0.876045,-60.92,19.38,-75.27
34,3359,0.066183,0.476612,0.874355,83.07,-49.63,93.72
35,3469,0.066305,0.480008,0.872754,-22.95,34.35,-64.30
36,3569,0.065219,0.482839,0.871870,27.07,-1.63,9.72
37,3669,0.065908,0.486162,0.870331,30.09,-9.61,26.74
38,3769,0.065193,0.487979,0.869462,-39.92,20.38,-43.27
39,3869,0.065190,0.489560,0.868834,52.07,-14.63,53.72
40,3979,0.065700,0.491472,0.867841,-34.92,17.38,-43.27
41,4079,0.064613,0.492218,0.868078,8.07,-2.63,16.72
42,4189,0.065465,0.493383,0.867932,5.07,-16.63,12.72
43,4289,0.064982,0.494391,0.868155,-31.93,15.37,-36.28
44,4389,0.064900,0.495139,0.868125,29.07,-14.63,37.72
45,4489,0.065416,0.495517,0.868338,-22.94,13.36,-18.29
46,4589,0.064903,0.495620,0.869123,2.08,-12.62,18.73
47,4699,0.065859,0.496568,0.868948,10.08,-2.62,8.73
48,4799,0.065792,0.496787,0.868909,-45.94,15.36,-34.29
49,4899,0.065570,0.497157,0.868583,3.07,-22.63,40.72
50,4999,0.066059,0.497343,0.868233,-55.95,10.35,-16.30
1,0,0.012211,-0.000076,1.000463,-16.93,-9.63,-5.28
2,99,0.023615,-0.000781,1.000857,7.06,4.36,-23.29
3,199,0.032557,-0.000538,1.000807,-6.95,-1.65,4.70
4,299,0.041203,-0.000222,1.000911,-5.93,1.37,5.72
5,399,0.047416,0.000065,1.001146,3.08,8.38,19.73
6,499,0.053009,-0.000752,1.001621,-1.92,-6.62,6.73
7,599,0.058349,0.000182,1.002189,-2.93,-7.63,16.72
8,699,0.061734,0.000006,1.002433,-1.93,2.37,-8.28
9,799,0.067028,-0.000309,1.002568,1.07,0.37,4.72
10,899,0.068965,-0.000045,1.001639,3.06,3.36,22.71
11,999,0.070703,0.000472,1.001966,-11.92,7.38,-41.27
12,1109,0.074725,0.000857,1.002336,5.08,-15.62,45.73
13,1209,0.075709,-0.000153,1.002211,8.07,-6.63,-9.28
14,1309,0.076691,-0.000554,1.001958,-1.94,-7.64,-5.29
15,1409,0.078992,-0.001388,1.001688,-8.92,0.38,22.73
16,1509,0.080526,-0.001549,1.001880,-2.92,11.38,-29.27
17,1619,0.081665,-0.001209,1.001823,0.07,-1.63,14.72
18,1719,0.082010,-0.001012,1.001756,-0.93,1.37,19.72
19,1819,0.082176,-0.001320,1.002359,2.07,4.37,-5.28
20,1919,0.082792,-0.001253,1.001974,-4.94,-1.64,12.71
21,2019,0.079617,-0.001580,1.002233,-4.94,0.36,10.71
22,2129,0.093600,-0.030295,0.997490,-1588.94,391.36,116.71
23,2229,0.113505,-0.033224,0.925912,-4133.93,-4.63,1100.72
24,2329,0.126304,-0.053713,0.939081,17717.06,3786.36,415.71
25,2439,0.039570,0.119356,0.842847,-4292.94,1413.36,-537.29
26,2539,0.032863,0.138932,0.831379,-3326.94,33.36,464.71
27,2639,0.040181,0.138671,0.856641,43.06,2.36,12.71
28,2739,0.046493,0.136490,0.876392,-21.93,4.37,-4.28
29,2849,0.050465,0.135643,0.893382,-15.94,3.36,-19.29
30,2949,0.053221,0.134868,0.908300,1.08,-10.62,4.73
31,3049,0.056825,0.134411,0.920834,-2.94,-13.64,15.71
32,3159,0.063167,0.098316,1.017785,10545.06,392.36,-103.29
33,3259,0.072916,0.101547,0.999064,17561.07,965.37,-662.28
34,3359,0.043647,0.178836,0.924924,6376.07,-1617.63,1020.72
35,3459,0.058887,0.220581,0.928922,-2662.93,-14.63,-271.28
36,3559,0.044943,0.264817,0.906740,-365.94,120.36,-215.29
37,3669,0.045596,0.302399,0.891694,506.07,-261.63,505.72
38,3769,0.050546,0.334674,0.883610,-30.93,92.37,-216.28
39,3869,0.048584,0.357584,0.880621,36.08,18.38,-59.27
40,3969,0.053030,0.380208,0.876451,225.06,-81.64,191.71
41,4079,0.054100,0.397808,0.875579,-185.94,112.36,-240.29
42,4179,0.054570,0.412127,0.876230,157.07,-66.63,153.72
43,4279,0.059017,0.426313,0.875246,26.07,22.37,-46.28
44,4379,0.057834,0.435917,0.875910,-10.93,44.37,-110.28
45,4489,0.059355,0.446278,0.873252,196.07,-48.63,118.72
46,4589,0.060905,0.454810,0.871158,-73.93,67.37,-155.28
47,4689,0.060135,0.461073,0.870952,92.08,-36.62,84.73
48,4789,0.062977,0.467899,0.869423,18.08,-11.62,17.73
49,4899,0.062244,0.472290,0.870704,-59.95,48.35,-87.30
50,4999,0.063012,0.476408,0.870530,141.07,-64.63,113.72
1,0,0.012870,-0.000534,1.000024,-5.94,-4.64,7.71
2,99,0.024212,-0.001829,1.000923,6.07,2.37,0.72
3,199,0.032040,-0.002857,1.000881,-6.94,2.36,-24.29
4,299,0.039334,-0.002468,1.001176,-8.94,-5.64,9.71
5,399,0.045663,-0.003309,1.001206,7.05,-18.65,26.70
6,499,0.015098,-0.009792,0.988048,-1786.95,-446.65,183.70
7,599,0.052253,-0.020502,0.913912,-3919.94,85.36,1456.71
8,699,0.043827,-0.044199,0.932361,17619.06,990.36,-236.29
9,799,0.074036,-0.040081,0.858155,-1750.95,2321.35,-1278.30
10,899,0.069244,0.024046,0.826501,-1883.95,-24.65,365.70
11,999,0.073595,0.040066,0.856102,21.05,-11.65,51.70
12,1109,0.074363,0.054158,0.882563,21.06,16.36,-36.29
13,1209,0.072636,0.066833,0.900385,-33.94,5.36,-4.29
14,1309,0.072852,0.076379,0.914509,2.07,-6.63,24.72
15,1419,0.073732,0.084219,0.926257,2.06,5.36,-10.29
16,1519,0.086363,0.071456,0.962391,11490.06,747.36,-138.29
17,1619,0.079466,0.083458,0.945479,17862.05,2098.35,-375.30
18,1719,0.057986,0.163716,0.885602,4974.07,-1407.63,1324.72
19,1829,0.067340,0.207162,0.898776,-1432.93,424.37,-698.28
20,1929,0.059067,0.249126,0.895105,-427.95,-35.65,164.70
21,2029,0.061612,0.290197,0.884569,187.07,-192.63,397.72
22,2139,0.061175,0.322598,0.879019,-314.94,120.36,-280.29
23,2239,0.058606,0.348510,0.875565,130.06,-82.64,190.71
24,2339,0.061897,0.373337,0.870725,40.06,-14.64,23.71
25,2439,0.059550,0.391547,0.869358,-91.93,68.37,-164.28
26,2539,0.059935,0.407757,0.868323,225.06,-82.64,170.71
27,2649,0.061618,0.422471,0.865851,-108.91,69.39,-146.26
28,2749,0.059605,0.432889,0.866039,52.06,-6.64,38.71
29,2849,0.062270,0.443575,0.864788,61.06,-32.64,77.71
30,2949,0.061606,0.451835,0.865117,-116.94,54.36,-131.29
31,3049,0.061957,0.458233,0.864975,105.05,-51.65,120.70
32,3159,0.063904,0.464899,0.864287,-39.93,29.37,-74.28
33,3259,0.062757,0.469173,0.865057,13.07,8.37,-5.28
34,3359,0.064346,0.473904,0.864796,70.07,-35.63,62.72
35,3469,0.064029,0.477194,0.865307,-79.94,45.36,-105.29
36,3569,0.063779,0.480960,0.865612,59.06,-34.64,70.71
37,3669,0.064591,0.484106,0.864994,-30.93,5.37,-20.28
38,3769,0.063781,0.486049,0.865786,-19.93,10.37,-15.28
39,3869,0.064593,0.487901,0.865653,38.05,-24.65,52.70
40,3979,0.064551,0.489530,0.865834,-59.93,30.37,-71.28
41,4079,0.065010,0.491061,0.866555,33.06,-29.64,53.71
42,4189,0.066095,0.492674,0.866564,-19.94,12.36,-18.29
43,4289,0.065443,0.493020,0.867267,-9.95,7.35,-2.30
44,4389,0.066043,0.494247,0.867388,26.06,-9.64,21.71
45,4489,0.066241,0.494833,0.867345,-23.95,22.35,-41.30
46,4589,0.065622,0.495111,0.867125,25.05,-10.65,30.70
47,4699,0.066469,0.495860,0.866865,-4.94,12.36,-20.29
48,4799,0.065999,0.495893,0.867743,-11.93,-3.63,-15.28
49,4899,0.066296,0.496158,0.867464,9.06,-13.64,37.71
50,4999,0.064222,0.497135,0.866640,-25.95,40.35,-30.30
1,0,0.012302,-0.000845,1.000372,15.07,2.37,29.72
2,99,0.022649,-0.002002,1.000321,-4.95,-8.65,29.70
3,199,0.033695,-0.003756,0.999985,-10.96,-12.66,-10.31
4,299,0.043194,-0.004514,1.000102,-16.95,-1.65,-52.30
5,399,0.050408,-0.004096,1.000110,-5.96,8.34,-57.31
6,499,0.055551,-0.002734,1.000300,-2.95,-4.65,-23.30
7,599,0.059740,-0.002052,1.000535,-2.96,-7.66,6.69
8,699,0.082837,-0.022566,0.971969,-5545.95,-891.65,1222.70
9,799,0.109483,-0.074116,0.987055,10922.04,4452.34,356.69
10,899,-0.119436,0.146087,0.968311,16088.05,355.35,-1275.30
11,999,-0.089970,0.187764,0.974425,3722.04,366.34,164.69
12,1109,-0.064063,0.177266,0.975062,107.04,27.34,-57.31
13,1209,-0.045942,0.169039,0.977123,-93.95,6.35,-13.30
14,1309,-0.028288,0.163199,0.973913,45.04,-13.66,28.69
15,1419,-0.012183,0.158180,0.974773,4.04,10.34,-24.31
16,1519,-0.000251,0.153548,0.978526,-16.96,5.34,5.69
17,1619,0.015805,0.113283,1.089803,2263.05,83.35,-262.30
18,1719,0.020261,0.109856,1.083350,16041.04,1420.34,-683.31
19,1829,0.011725,0.179910,0.984555,8549.05,-834.65,609.70
20,1929,0.025143,0.230887,0.965142,-1779.96,331.34,372.69
21,2029,0.020416,0.272826,0.942434,-75.96,216.34,-462.31
22,2139,0.026377,0.308968,0.925952,527.03,-146.67,335.68
23,2239,0.034428,0.339359,0.914286,-44.97,124.33,-277.32
24,2339,0.035541,0.361017,0.909259,121.04,2.34,-26.31
25,2439,0.043262,0.382191,0.902990,200.04,-63.66,134.69
26,2539,0.047408,0.398999,0.899419,-125.95,93.35,-224.30
27,2649,0.049888,0.413322,0.895945,200.04,-65.66,154.69
28,2749,0.054542,0.426559,0.891197,-29.96,39.34,-75.31
29,2849,0.054450,0.436455,0.889523,-32.97,26.33,-52.32
30,2949,0.057815,0.445892,0.886471,108.03,-59.67,126.68
31,3049,0.059613,0.453859,0.884151,-130.96,56.34,-131.31
32,3159,0.060078,0.459770,0.882673,67.02,-38.68,87.67
33,3259,0.062691,0.466369,0.879788,-19.96,4.34,-11.31
34,3359,0.062274,0.470239,0.878452,-64.97,19.33,-65.32
35,3469,0.063970,0.474773,0.875760,63.04,-40.66,91.69
36,3569,0.064552,0.478682,0.874644,-86.96,34.34,-95.31
37,3669,0.063692,0.481310,0.874044,24.04,-30.66,51.69
38,3769,0.064920,0.484586,0.872196,-5.95,-13.65,-2.30
39,3869,0.064132,0.486420,0.871688,-53.96,23.34,-49.31
40,3979,0.064928,0.488582,0.870615,32.03,-29.67,78.68
41,4079,0.065201,0.490475,0.869630,-73.96,23.34,-63.31
42,4189,0.064994,0.491681,0.869599,14.05,-17.65,45.70
43,4289,0.066448,0.493310,0.868583,-3.96,3.34,4.69
44,4389,0.066548,0.493707,0.868415,-14.96,20.34,-41.31
45,4489,0.066468,0.494922,0.867687,74.03,-17.67,37.68
46,4589,0.066767,0.496597,0.865822,-18.95,24.35,-29.30
47,4699,0.065867,0.496756,0.865867,-18.96,-15.66,30.69
48,4799,0.067043,0.496691,0.865668,14.05,-25.65,27.70
49,4899,0.067805,0.497349,0.866267,-10.96,27.34,-67.31
50,4999,0.067537,0.497744,0.867179,69.03,-13.67,22.68
1,0,0.015304,-0.000442,0.999895,0.04,-6.66,1.69
2,99,0.026921,-0.001350,1.000905,13.03,10.33,-18.32
3,199,0.034195,-0.001626,1.001635,-8.96,26.34,-23.31
4,299,0.040122,-0.001550,1.001413,-9.98,-10.68,16.67
5,399,0.047412,-0.001467,1.001407,-2.96,-7.66,12.69
6,499,0.053260,-0.001964,1.001494,-6.98,-2.68,-1.33
7,599,0.058231,-0.001929,1.002392,3.03,11.33,-7.32
8,699,0.062383,-0.001570,1.002422,-15.98,-2.68,-11.33
9,799,0.065693,-0.000880,1.002485,-11.98,9.32,-4.33
10,899,0.068470,-0.000421,1.003308,-3.97,3.33,-4.32
11,999,0.069731,-0.000233,1.003512,-0.98,4.32,6.67
12,1109,0.044106,-0.009229,0.970654,-3901.98,-2816.68,220.67
13,1209,0.059093,-0.056169,0.986065,-2914.96,594.34,942.69
14,1309,0.082471,-0.055711,1.024141,16560.04,3871.34,-180.31
15,1419,-0.006606,0.112640,0.884899,-8172.97,-600.67,-2237.32
16,1519,-0.001956,0.121870,0.972115,-1286.96,129.34,617.69
17,1619,0.011334,0.125211,0.979764,-41.97,23.33,-54.32
18,1719,0.018968,0.123931,0.980533,-53.98,4.32,-22.33
19,1829,0.028662,0.124455,0.983623,-12.97,-9.67,9.68
20,1929,0.036096,0.126291,0.985535,2.03,-8.67,-6.32
21,2029,0.042049,0.126991,0.987325,-0.98,-1.68,-11.33
22,2139,0.053059,0.116106,0.999797,11788.02,965.32,-998.33
23,2239,0.042899,0.156640,0.960684,16450.03,1481.33,-901.32
24,2339,0.030400,0.225298,0.901346,2884.04,-1378.66,2029.69
25,2439,0.040796,0.259231,0.908587,-932.98,424.32,-884.33
26,2539,0.038811,0.290710,0.909065,-331.97,-20.67,144.68
27,2649,0.047580,0.323163,0.902770,0.04,-124.66,270.69
28,2749,0.049283,0.348898,0.897383,-371.97,110.33,-261.32
29,2849,0.048607,0.370480,0.892767,84.03,-110.67,239.68
30,2949,0.053910,0.391571,0.886152,-76.97,10.33,-1.32
31,3059,0.052612,0.406294,0.884209,-133.98,33.32,-73.33
32,3159,0.054898,0.420750,0.880819,116.05,-86.65,184.70
33,3259,0.056547,0.433165,0.877351,-151.98,65.32,-158.33
34,3359,0.054672,0.441649,0.875374,58.04,-38.66,66.69
35,3469,0.057563,0.451040,0.872228,-20.98,-5.68,17.67
36,3569,0.056707,0.457941,0.871770,-94.98,41.32,-93.33
37,3669,0.057352,0.463990,0.870538,108.03,-59.67,133.68
38,3769,0.059439,0.469279,0.869052,-67.97,36.33,-96.32
39,3879,0.058576,0.472456,0.869802,36.02,-15.68,40.67
40,3979,0.060736,0.476749,0.868335,37.02,-17.68,37.67
41,4079,0.060594,0.479172,0.868424,-63.96,31.34,-81.31
42,4189,0.061059,0.481707,0.868243,80.02,-44.68,96.67
43,4289,0.061876,0.483898,0.867449,-45.97,30.33,-70.32
44,4389,0.060831,0.485633,0.867580,10.03,3.33,4.68
45,4489,0.062213,0.487620,0.867233,34.03,-27.67,38.68
46,4589,0.063736,0.490097,0.864668,19.04,10.34,-72.31
47,4699,0.064425,0.490975,0.864465,45.02,-36.68,71.67
48,4799,0.064645,0.492966,0.863084,-34.98,34.32,-38.33
49,4899,0.064320,0.493029,0.864674,-11.98,14.32,4.67
50,4999,0.065069,0.493632,0.864361,34.04,-9.66,32.69
1,0,0.010781,-0.000186,1.000975,2.03,11.33,-21.32
2,99,0.020843,-0.000106,1.001310,8.03,9.33,7.68
3,199,0.030274,-0.000588,1.002254,2.03,-4.67,3.68
4,299,0.038107,-0.001107,1.002800,-1.98,2.32,-1.33
5,399,0.044087,-0.000963,1.002714,-9.98,12.32,-43.33
6,499,0.052320,-0.000950,1.002751,2.02,3.32,14.67
7,599,0.054942,-0.001415,1.002911,-0.97,11.33,-27.32
8,699,0.039647,-0.010837,0.978291,-803.98,-223.68,228.67
9,799,0.072826,-0.004692,0.894797,-3072.98,-703.68,1574.67
10,899,0.098959,-0.046087,0.904741,15304.03,859.33,305.68
11,999,0.124047,-0.033428,0.825724,-1171.97,-3653.67,-1359.32
12,1109,0.118729,0.009394,0.848337,-3189.98,-74.68,1260.67
13,1209,0.112525,0.030083,0.872904,72.03,-7.67,12.68
14,1309,0.109211,0.044482,0.891168,-74.97,-5.67,-4.32
15,1419,0.103098,0.057234,0.908267,-22.97,3.33,-1.32
16,1519,0.098579,0.067890,0.921134,-3.97,-10.67,20.68
17,1619,0.096075,0.077058,0.932200,-1.96,3.34,8.69
18,1719,0.098854,0.038818,1.078423,8197.04,200.34,-468.31
19,1819,0.099348,0.048171,1.068001,17226.01,1736.31,-617.34
20,1929,0.071917,0.131268,0.982567,5639.03,-1215.67,1319.68
21,2029,0.078686,0.186502,0.972242,-1282.96,179.34,-256.31
22,2139,0.069883,0.231033,0.957496,-396.96,-8.66,45.69
23,2239,0.069815,0.273682,0.938480,84.04,-126.66,274.69
24,2339,0.068477,0.309000,0.923726,-247.97,106.33,-226.32
25,2439,0.064702,0.337409,0.913968,97.02,-35.68,80.67
26,2539,0.066583,0.363388,0.903605,117.04,-23.66,64.69
27,2649,0.063642,0.384041,0.896445,-77.97,62.33,-146.32
28,2749,0.063100,0.401707,0.889955,187.02,-62.68,128.67
29,2849,0.064398,0.417857,0.884366,-10.97,42.33,-113.32
30,2949,0.062700,0.429388,0.880952,59.03,17.33,-24.32
31,3049,0.064296,0.440306,0.877702,141.02,-30.68,66.67
32,3159,0.064059,0.449202,0.875434,-59.98,43.32,-112.33
33,3259,0.063766,0.456379,0.874532,87.02,-28.68,75.67
34,3359,0.065477,0.463450,0.872556,8.02,9.32,-17.33
35,3469,0.064294,0.468582,0.871829,-0.97,17.33,-40.32
36,3569,0.064790,0.473859,0.869618,88.02,-34.68,84.67
37,3669,0.064773,0.477630,0.868343,-64.97,36.33,-87.32
38,3769,0.063916,0.480855,0.867698,48.04,-31.66,60.69
39,3869,0.065183,0.483925,0.866675,-15.97,11.33,2.68
40,3979,0.064227,0.485527,0.867617,-52.97,13.33,-28.32
41,4079,0.064971,0.487896,0.866917,71.02,-35.68,101.67
42,4189,0.065311,0.488976,0.868976,-32.99,38.31,-78.34
43,4289,0.066295,0.490370,0.869701,90.01,-27.69,80.66
44,4389,0.067846,0.492177,0.870080,2.02,32.32,-49.33
45,4489,0.066729,0.492432,0.870786,-17.97,13.33,-7.32
46,4589,0.067409,0.492777,0.870654,40.02,-24.68,44.67
47,4699,0.067419,0.493344,0.871146,-54.98,26.32,-42.33
48,4799,0.067538,0.493552,0.871747,28.03,-16.67,62.68
49,4899,0.068701,0.494534,0.870647,-51.99,2.31,-7.34
50,4999,0.068023,0.495149,0.869657,-66.98,15.32,-34.33
1,0,0.012118,0.000326,0.998961,7.03,3.33,2.68
2,99,0.022729,0.000238,0.999745,-6.97,-11.67,5.68
3,199,0.033067,0.000528,0.999220,-8.99,2.31,2.66
4,299,0.039694,0.000098,0.999781,9.03,9.33,-23.32
5,399,0.045344,-0.000415,1.001247,-11.99,1.31,1.66
6,499,0.049067,-0.000649,1.000900,-4.98,6.32,-34.33
7,599,0.052250,-0.001928,1.001484,-7.99,-5.69,22.66
8,699,0.057592,-0.002045,1.002017,-8.99,-1.69,13.66
9,799,0.061309,-0.001943,1.001994,2.04,2.34,-10.31
10,899,0.064194,-0.002698,1.001938,4.01,-0.69,10.66
11,999,0.066719,-0.002517,1.002055,2.02,9.32,-18.33
12,1109,0.066650,-0.001813,1.002557,0.03,-3.67,4.68
13,1209,0.068733,-0.030859,1.053503,-5599.98,-812.68,857.67
14,1309,0.091067,-0.069044,1.033452,8928.02,2004.32,407.67
15,1409,-0.221663,0.242857,0.984531,15890.03,-3050.68,-2196.33
16,1509,-0.157253,0.244017,1.100711,3336.02,8.32,-47.33
17,1619,-0.126620,0.223634,1.111793,-235.99,-30.69,96.66
18,1719,-0.095656,0.208964,1.093930,-68.98,-10.68,41.67
19,1819,-0.068659,0.196915,1.076239,-14.98,-13.68,20.67
20,1919,-0.045675,0.186875,1.062152,1.01,0.31,-12.34
21,2029,-0.027659,0.178176,1.052248,-12.99,-9.69,24.66
22,2129,-0.010166,0.174902,1.055970,47.00,-13.70,-0.35
23,2229,0.013236,0.162012,1.070760,14226.01,1042.31,-1165.34
24,2329,0.006833,0.219573,0.977882,12423.00,389.30,-319.35
25,2439,0.056323,0.262952,0.949545,-251.98,1326.32,1686.67
26,2539,0.052045,0.295887,0.936043,-293.98,275.32,-578.33
27,2639,0.051632,0.325146,0.927606,358.03,-82.67,199.68
28,2739,0.058056,0.352708,0.917943,93.02,-11.68,18.67
29,2849,0.056869,0.373205,0.911452,-69.00,59.30,-153.35
30,2949,0.059320,0.392056,0.904524,201.01,-95.69,203.66
31,3049,0.062009,0.408665,0.898434,-153.98,77.32,-157.33
32,3159,0.060486,0.421410,0.895473,42.02,-24.68,70.67
33,3259,0.063897,0.433653,0.891253,45.02,-29.68,77.67
34,3359,0.063317,0.442284,0.889058,-122.98,60.32,-139.33
35,3459,0.063411,0.449894,0.886497,97.03,-69.67,133.68
36,3559,0.065650,0.457608,0.883239,-59.99,25.31,-63.34
37,3669,0.064112,0.462902,0.881349,-2.98,1.32,-11.33
38,3769,0.065734,0.468902,0.878497,62.02,-37.68,86.67
39,3869,0.066050,0.473747,0.877098,-92.99,47.31,-105.34
40,3969,0.065513,0.477334,0.875726,57.02,-36.68,76.67
41,4069,0.066925,0.481170,0.873645,-25.98,-2.68,4.67
42,4179,0.065342,0.483661,0.873065,-55.98,14.32,-29.33
43,4279,0.066156,0.486328,0.871419,39.01,-37.69,75.66
44,4379,0.066776,0.488431,0.870917,-77.99,23.31,-66.34
45,4489,0.066039,0.489723,0.870857,39.02,-21.68,50.67
46,4589,0.067335,0.491628,0.869872,4.03,1.33,8.68
47,4689,0.066478,0.492295,0.869786,-27.98,19.32,-46.33
48,4789,0.066554,0.493227,0.869236,53.01,-18.69,55.66
49,4889,0.066693,0.494258,0.867835,-35.99,-13.69,-25.34
50,4999,0.069374,0.493779,0.871002,129.02,-193.68,292.67
1,0,0.010195,0.000271,0.999895,1.01,-4.69,-3.34
2,99,0.019172,0.000465,1.000959,-16.99,-12.69,-11.34
3,199,0.029530,0.000538,1.001607,-16.00,-1.70,8.65
4,299,0.040349,0.000179,1.001865,18.01,3.31,5.66
5,399,0.046816,0.000368,0.999960,14.00,7.30,-9.35
6,499,0.051160,-0.000002,1.000410,-6.00,-16.70,-10.35
7,599,0.057599,-0.000096,1.000500,-22.99,-21.69,4.66
8,699,0.065782,-0.000342,1.000704,-3.00,10.30,0.65
9,799,0.070193,-0.000514,1.000860,14.01,30.31,-7.34
10,899,0.070554,0.000164,1.000790,8.01,16.31,-5.34
11,999,0.070678,-0.000231,1.000603,-7.01,-6.71,-2.36
12,1109,0.071828,0.000313,1.001177,-4.99,-12.69,-25.34
13,1209,0.097249,-0.039673,1.008128,-5625.99,-455.69,1145.66
14,1309,0.119480,-0.092429,1.036412,9271.01,4533.31,1119.66
15,1419,-0.000656,0.057974,1.065488,4420.00,-13522.70,-1229.35
16,1519,0.010424,0.119989,1.000683,5002.99,186.29,825.64
17,1619,0.021948,0.115116,1.019793,-209.00,-34.70,65.65
18,1719,0.032311,0.115698,1.012269,-83.00,-11.70,13.65
19,1829,0.037347,0.117126,1.010617,-33.00,15.30,-17.35
20,1929,0.042086,0.118889,1.008003,-8.00,-2.70,8.65
21,2029,0.047982,0.120535,1.005745,-6.00,-6.70,18.65
22,2139,0.056582,0.083408,1.136523,3447.01,91.31,-394.34
23,2239,0.055360,0.088288,1.117203,15895.00,1621.30,-650.35
24,2339,0.030736,0.158006,1.014739,9004.00,-541.70,388.65
25,2439,0.065288,0.217706,0.981350,-923.00,566.30,1643.65
26,2539,0.059903,0.260395,0.960403,-278.99,336.31,-651.34
27,2649,0.056607,0.294958,0.947396,317.99,-59.71,135.64
28,2749,0.061076,0.326590,0.933941,154.01,3.31,-4.34
29,2849,0.060406,0.350895,0.925507,-46.00,93.30,-213.35
30,2949,0.060844,0.372525,0.918211,281.01,-86.69,188.66
31,3059,0.062883,0.391881,0.910123,-20.99,65.31,-132.34
32,3159,0.061008,0.405825,0.905262,12.01,1.31,-2.34
33,3259,0.063388,0.420021,0.898841,42.00,-55.70,95.65
34,3359,0.063104,0.431300,0.893988,-188.01,69.29,-141.36
35,3469,0.062826,0.440814,0.891053,99.01,-58.69,127.66
36,3569,0.064915,0.449597,0.887679,-26.00,16.30,-51.35
37,3669,0.063047,0.455231,0.886588,-3.99,13.31,-27.34
38,3769,0.064150,0.461595,0.884158,66.01,-46.69,88.66
39,3869,0.064210,0.467077,0.882423,-93.99,34.31,-109.34
40,3979,0.063326,0.471316,0.880783,45.00,-28.70,82.65
41,4079,0.064736,0.475542,0.877888,-14.99,2.31,-6.34
42,4189,0.064213,0.477871,0.877936,-18.99,10.31,-14.34
43,4289,0.065417,0.480509,0.877079,43.01,-31.69,66.66
44,4389,0.065396,0.482404,0.876900,-79.99,30.31,-76.34
45,4489,0.064866,0.484051,0.876565,18.01,-21.69,34.66
46,4589,0.065386,0.486422,0.875090,15.02,-3.68,13.67
47,4699,0.064216,0.487924,0.874788,17.01,9.31,-10.34
48,4799,0.064467,0.489348,0.873872,57.01,-23.69,61.66
49,4899,0.064644,0.490100,0.873515,-52.99,27.31,-58.34
50,4999,0.062175,0.488157,0.874566,124.00,-130.70,252.65
1,0,0.011495,-0.000333,0.999913,-7.99,3.31,20.66
2,99,0.022748,-0.000012,1.001194,-9.00,6.30,8.65
3,199,0.030647,-0.000362,1.000690,-4.00,-11.70,20.65
4,299,0.039467,-0.000897,1.000866,9.00,-2.70,4.65
5,399,0.045719,-0.000803,1.001803,1.00,-0.70,-2.35
6,499,0.022963,-0.062814,1.079595,-5913.99,894.31,1219.66
7,599,0.050533,-0.092982,1.056894,8414.02,1519.32,561.67
8,699,0.049485,-0.075065,1.101978,15677.01,1688.31,-514.34
9,799,-0.048304,0.011319,1.193418,2156.00,1227.30,408.65
10,899,-0.036047,0.049809,1.146538,-484.02,41.28,358.63
11,999,-0.022386,0.065021,1.131703,-10.99,38.31,-79.34
12,1109,-0.006984,0.075644,1.114974,-6.00,-22.70,52.65
13,1209,0.008835,0.083721,1.096359,-3.01,3.29,14.64
14,1309,0.019828,0.090934,1.082605,-11.01,6.29,-29.36
15,1419,0.030765,0.086849,1.120848,434.00,23.30,-65.35
16,1519,0.046287,0.087935,1.121127,15497.00,1590.30,-650.35
17,1619,0.025699,0.157926,1.021078,11282.01,-190.69,-49.34
18,1719,0.057435,0.221630,0.975642,-856.00,792.30,1828.65
19,1829,0.052661,0.264096,0.955204,-74.99,178.31,-412.34
20,1929,0.054041,0.299643,0.941292,465.01,-115.69,232.66
21,2029,0.059498,0.330663,0.929815,35.00,53.30,-129.35
22,2139,0.057802,0.354119,0.922055,63.00,18.30,-56.35
23,2239,0.061322,0.376401,0.914177,208.00,-57.70,131.65
24,2339,0.063069,0.394754,0.908287,-109.98,87.32,-192.33
25,2439,0.062686,0.409512,0.903573,109.99,-43.71,86.64
26,2539,0.065949,0.423722,0.898083,26.00,-8.70,12.65
27,2649,0.064731,0.434226,0.894973,-59.01,32.29,-70.36
28,2749,0.065894,0.444016,0.890993,80.00,-64.70,142.65
29,2849,0.067174,0.452373,0.887592,-118.00,34.30,-95.35
30,2949,0.066231,0.458653,0.885671,-11.00,-16.70,34.65
31,3049,0.067919,0.465071,0.882372,-1.00,-16.70,43.65
32,3159,0.067028,0.469501,0.880264,-74.00,28.30,-67.35
33,3259,0.067297,0.474182,0.878710,64.00,-39.70,89.65
34,3359,0.067928,0.478070,0.876455,-62.00,17.30,-50.35
35,3469,0.066688,0.480733,0.875546,-9.00,-0.70,21.65
36,3569,0.067593,0.484040,0.873180,11.99,-17.71,47.64
37,3669,0.067154,0.486229,0.872487,-69.01,24.29,-60.36
38,3769,0.066323,0.488181,0.871550,32.00,-25.70,72.65
39,3869,0.067063,0.490207,0.870113,-48.00,1.30,-13.35
40,3979,0.066044,0.490958,0.870631,-36.02,-0.72,-5.37
41,4079,0.066735,0.492457,0.869862,18.00,-27.70,51.65
42,4189,0.070159,0.494775,0.868037,239.99,-205.71,500.64
43,4289,0.068255,0.495335,0.872107,-219.01,42.29,-234.36
44,4389,0.069548,0.497789,0.872747,319.01,-137.69,234.66
45,4489,0.069585,0.501101,0.869574,-221.01,-17.71,-66.36
46,4589,0.069433,0.501866,0.867591,-292.01,153.29,-367.36
47,4699,0.088566,0.511177,0.872516,555.99,256.29,599.64
48,4799,0.086648,0.509222,0.875639,111.01,28.31,-83.34
49,4899,0.081171,0.504979,0.880400,94.99,3.29,28.64
50,4999,0.074228,0.504942,0.877562,-164.00,-8.70,31.65
1,0,0.011897,-0.000169,0.999437,-5.02,15.28,-10.37
2,99,0.024500,-0.000513,1.001101,-1.00,-1.70,8.65
3,199,0.031294,-0.000715,1.001178,-11.01,-4.71,-31.36
4,299,0.039577,-0.001399,1.001280,-2.01,-10.71,18.64
5,399,0.046288,-0.001797,1.001660,-10.01,0.29,3.64
6,499,0.052981,-0.001715,1.001397,-6.02,0.28,-10.37
7,599,0.056272,-0.000766,1.002108,-8.01,1.29,-15.36
8,699,0.059764,-0.001369,1.002785,6.99,-3.71,-2.36
9,799,0.062129,-0.001057,1.002628,6.00,-4.70,7.65
10,899,0.066080,-0.001745,1.001854,-0.02,2.28,10.63
11,999,0.069511,-0.002769,1.001690,-1.01,-10.71,-16.36
12,1109,0.070743,-0.003475,1.002246,-3.02,-5.72,14.63
13,1209,0.078913,0.012350,0.899045,-5126.01,-1679.71,460.64
14,1309,0.076630,-0.055406,0.951565,-1216.00,128.30,545.65
15,1419,0.097870,-0.042722,0.999008,16072.99,4089.29,533.64
16,1519,0.094189,-0.094252,1.025565,-11452.01,-3186.71,-855.36
17,1619,0.093679,-0.045127,1.054273,1141.99,122.29,794.64
18,1719,0.093391,-0.017433,1.051849,65.98,-14.72,40.63
19,1829,0.091096,0.005026,1.045834,46.97,7.27,-34.38
20,1929,0.087406,0.024575,1.039183,-21.01,5.29,-1.36
21,2029,0.085350,0.040440,1.033054,-5.01,1.29,10.64
22,2139,0.084975,0.053908,1.026708,10.99,10.29,-11.36
23,2239,0.088282,0.055230,1.055867,12502.99,470.29,-727.36
24,2339,0.067088,0.105828,0.980603,15078.98,860.28,-760.37
25,2439,0.057551,0.179580,0.929043,1839.99,-1317.71,2038.64
26,2539,0.058746,0.223592,0.923724,-480.02,327.28,-714.37
27,2649,0.056887,0.261424,0.920723,149.99,-45.71,142.64
28,2749,0.062833,0.297848,0.912953,64.99,-70.71,159.64
29,2849,0.062558,0.326793,0.907338,-293.01,97.29,-207.36
30,2949,0.061556,0.351800,0.902456,41.00,-93.70,199.65
31,3059,0.064879,0.374741,0.897261,-180.01,36.29,-82.36
32,3159,0.062668,0.392153,0.894165,-97.00,4.30,-15.35
33,3259,0.064579,0.408893,0.889280,69.99,-61.71,150.64
34,3359,0.064537,0.422885,0.885348,-172.01,61.29,-142.36
35,3469,0.063439,0.433844,0.882391,60.99,-54.71,132.64
36,3569,0.064905,0.444368,0.879291,-76.01,13.29,-28.36
37,3669,0.063349,0.451958,0.877022,-75.01,19.29,-42.36
38,3769,0.064297,0.459362,0.874324,49.98,-38.72,71.63
39,3879,0.063839,0.465344,0.872727,-81.02,25.28,-76.37
40,3979,0.063102,0.470062,0.871351,14.99,-38.71,50.64
41,4079,0.064161,0.475337,0.870292,-30.01,20.29,-23.36
42,4189,0.063357,0.478501,0.870050,-33.01,3.29,1.64
43,4289,0.063974,0.482033,0.869277,13.98,-19.72,44.63
44,4389,0.064370,0.484669,0.868639,-46.02,19.28,-47.37
45,4489,0.064231,0.486947,0.868810,27.99,-18.71,33.64
46,4589,0.065047,0.488864,0.869084,-6.02,3.28,-20.37
47,4699,0.064587,0.490915,0.868657,-13.00,5.30,-0.35
48,4799,0.065075,0.492201,0.868259,30.01,-7.69,26.66
49,4899,0.065069,0.493404,0.867773,-10.00,22.30,-29.35
50,4999,0.064459,0.493804,0.867177,18.00,-5.70,11.65
1,0,0.011934,0.000124,0.998942,-6.01,13.29,-2.36
2,99,0.021802,-0.000082,0.999948,-3.03,-8.73,-7.38
3,199,0.029586,-0.000000,1.001095,-7.01,5.29,-1.36
4,299,0.036624,0.000710,1.001137,-8.02,-1.72,-6.37
5,399,0.043796,0.000783,1.000568,-5.03,1.27,5.62
6,499,0.049416,0.000936,1.000762,4.97,6.27,1.62
7,599,0.053149,0.000755,1.000652,-1.03,0.27,23.62
8,699,0.056671,0.000308,1.000430,-22.01,-11.71,2.64
9,799,0.060268,0.000422,1.000754,-3.03,4.27,-5.38
10,899,0.063656,0.000648,1.001067,-8.02,-3.72,-6.37
11,999,0.066131,0.000455,1.000563,-2.04,-4.74,0.61
12,1109,0.069463,-0.000753,1.000446,9.96,-19.74,20.61
13,1209,0.071983,-0.001743,0.999486,36.96,41.26,-16.39
14,1309,0.057849,-0.038839,1.008375,-4140.00,-658.70,254.65
15,1409,0.042098,-0.078501,0.991760,12010.97,-196.73,-179.38
16,1509,0.160088,0.158765,0.800246,668.98,-10441.72,-1689.37
17,1619,0.145206,0.195700,0.720917,1175.97,-246.73,315.62
18,1719,0.139460,0.187600,0.749088,19.98,-49.72,29.63
19,1819,0.132141,0.181886,0.793522,29.97,5.27,-13.38
20,1919,0.121689,0.173862,0.822008,-54.02,7.28,-24.37
21,2019,0.114563,0.167407,0.847612,14.98,-4.72,15.63
22,2129,0.110026,0.162397,0.870090,-6.02,-1.72,-2.37
23,2229,0.109648,0.112197,1.038720,6041.97,39.27,-129.38
24,2329,0.115260,0.109994,1.035444,16487.99,1844.29,-164.36
25,2439,0.087035,0.182260,0.953923,6296.98,-1022.72,864.63
26,2539,0.107263,0.236747,0.940203,-986.02,120.28,232.63
27,2639,0.096625,0.277183,0.925300,-600.02,243.28,-250.37
28,2739,0.087124,0.310931,0.912943,138.96,-61.74,135.61
29,2849,0.084322,0.341484,0.900994,-34.02,10.28,-22.37
30,2949,0.077784,0.364507,0.893803,-84.03,46.27,-114.38
31,3049,0.075449,0.385083,0.886885,160.96,-67.74,138.61
32,3159,0.073648,0.402847,0.881701,-110.02,64.28,-138.37
33,3259,0.069718,0.416849,0.879473,83.98,-24.72,68.63
34,3359,0.069729,0.430086,0.876005,64.98,-4.72,14.63
35,3459,0.067431,0.439379,0.874192,-47.02,40.28,-103.37
36,3559,0.066558,0.448340,0.872469,121.98,-31.72,87.63
37,3669,0.066914,0.456213,0.870289,-47.03,43.27,-89.38
38,3769,0.064800,0.461861,0.869791,50.98,-16.72,30.63
39,3869,0.065823,0.468091,0.867849,32.98,-10.72,28.63
40,3969,0.065045,0.472214,0.867772,-66.02,28.28,-72.37
41,4069,0.064639,0.476048,0.867689,43.97,-27.73,73.62
42,4179,0.065009,0.479271,0.867563,-60.02,21.28,-56.37
43,4279,0.064261,0.481405,0.868188,0.96,5.26,17.61
44,4379,0.064962,0.484099,0.867695,25.97,-13.73,21.62
45,4489,0.064587,0.485766,0.868593,-22.02,25.28,-37.37
46,4589,0.064397,0.487805,0.868533,55.99,-26.71,41.64
47,4689,0.064382,0.489447,0.868098,-27.03,23.27,-42.38
48,4789,0.063709,0.490074,0.867507,10.96,-1.74,13.61
49,4889,0.064347,0.491687,0.866274,16.98,-13.72,18.63
50,4999,0.063936,0.492490,0.866488,-30.03,19.27,-24.38
1,0,0.013984,-0.000846,0.999602,14.99,29.29,17.64
2,99,0.021805,-0.001328,1.000123,4.96,7.26,12.61
3,199,0.030138,-0.001572,1.000091,-16.02,1.28,-23.37
4,299,0.038649,-0.001066,1.000283,-22.03,-13.73,-27.38
5,399,0.046890,-0.000361,1.001233,-22.03,-12.73,-17.38
6,499,0.055067,0.000458,1.001455,8.96,-0.74,-21.39
7,609,0.059033,0.000623,1.001827,2.97,5.27,24.62
8,709,0.062624,-0.000042,1.002107,-2.03,-4.73,8.62
9,809,0.066757,-0.000608,1.002143,-15.02,3.28,-9.37
10,909,0.070233,-0.000997,1.002046,-7.02,10.28,7.63
11,1009,0.073755,-0.001822,1.001652,4.98,8.28,-11.37
12,1119,0.073892,-0.001388,1.001848,-5.03,2.27,-20.38
13,1219,0.074248,-0.001312,1.001557,-4.01,-6.71,12.64
14,1319,0.076893,-0.001980,1.001108,-7.03,-8.73,11.62
15,1429,0.079782,-0.001614,1.001239,-13.02,10.28,-22.37
16,1529,0.080041,-0.000973,1.001735,-6.02,4.28,22.63
17,1629,0.082458,-0.011030,0.969252,-5529.03,-4280.73,248.62
18,1729,0.090483,-0.049974,0.979417,392.99,1059.29,1345.64
19,1839,0.100727,-0.032503,1.026051,15128.97,5207.27,-319.38
20,1939,0.177293,0.000402,1.087443,-8406.03,-4603.73,-870.38
21,2039,0.159043,0.038277,1.077206,1064.96,133.26,428.61
22,2149,0.143201,0.051171,1.059184,-62.04,11.26,-40.39
23,2249,0.130102,0.063541,1.049065,48.98,-8.72,4.63
24,2349,0.122592,0.074349,1.043779,-21.04,-7.74,28.61
25,2449,0.117583,0.083224,1.035532,1.98,-4.72,-8.37
26,2549,0.111824,0.090768,1.030298,-3.04,6.26,-19.39
27,2659,0.115388,0.087366,1.051154,12328.98,487.28,-345.37
28,2759,0.090713,0.125746,0.985221,15491.96,848.26,-709.39
29,2859,0.076332,0.200355,0.936118,2035.98,-1472.72,2167.63
30,2959,0.079782,0.242570,0.936677,-821.02,344.28,-817.37
31,3059,0.072551,0.275943,0.933014,-273.04,3.26,52.61
32,3169,0.075817,0.309730,0.923547,55.96,-128.74,280.61
33,3269,0.073740,0.337882,0.914732,-332.03,113.27,-241.38
34,3369,0.069210,0.360547,0.907970,50.96,-85.74,187.61
35,3479,0.071604,0.382908,0.900392,-80.03,-10.73,8.62
36,3579,0.068475,0.398838,0.896551,-152.02,50.28,-111.37
37,3679,0.064735,0.414740,0.892627,224.97,-91.73,240.62
38,3779,0.067764,0.428550,0.886966,-147.03,86.27,-189.38
39,3889,0.064424,0.436535,0.885908,44.97,-48.73,120.62
40,3989,0.070520,0.445593,0.886180,-68.02,-38.72,115.63
41,4089,0.103571,0.481125,0.878447,1976.98,-626.72,1352.63
42,4199,0.104748,0.471794,0.899742,-771.02,278.28,-444.37
43,4299,0.098753,0.471937,0.900722,-403.04,23.26,11.61
44,4399,0.096294,0.474256,0.898187,-114.03,-125.73,271.62
45,4499,0.091659,0.478187,0.894621,-273.03,27.27,-74.38
46,4599,0.086510,0.480448,0.892213,-43.03,-3.73,-25.38
47,4709,0.087316,0.485409,0.884856,89.97,-20.73,77.62
48,4809,0.080787,0.485634,0.883163,5.99,115.29,-264.36
49,4909,0.079705,0.487675,0.880954,258.97,-65.73,139.62
50,5009,0.076002,0.488659,0.878161,35.98,59.28,-138.37
1,0,0.011109,0.001259,1.000187,2.98,0.28,28.63
2,99,0.022676,0.000773,1.000768,-8.02,2.28,-21.37
3,199,0.030146,0.000891,1.000785,-1.02,1.28,7.63
4,299,0.037704,0.000497,1.000763,-10.02,-0.72,7.63
5,399,0.044257,0.000272,1.001587,-0.01,8.29,0.64
6,499,0.050009,0.000740,1.001555,-19.03,-5.73,12.62
7,599,0.058066,0.000185,1.001784,-7.02,9.28,-13.37
8,699,0.060521,-0.000487,1.001264,4.99,0.29,-4.36
9,799,0.063998,-0.000363,1.001482,-9.02,-3.72,5.63
10,899,0.066277,-0.000203,1.001850,1.97,-10.73,-7.38
11,999,0.068727,0.000519,1.002034,-9.01,13.29,21.64
12,1109,0.077089,-0.032613,1.031012,-3594.02,308.28,1297.63
13,1209,0.057757,-0.075735,1.011167,10949.98,302.28,189.63
14,1309,0.171860,0.145277,0.899505,5183.98,-16563.72,-417.37
15,1409,0.148951,0.186543,0.848501,3983.99,184.29,471.64
16,1509,0.138358,0.167749,0.891628,-208.03,-39.73,125.62
17,1619,0.130435,0.164006,0.906844,42.97,13.27,-31.38
18,1719,0.121594,0.159140,0.922854,-13.02,15.28,-31.37
19,1819,0.113200,0.154930,0.933918,-5.04,5.26,17.61
20,1919,0.107750,0.151205,0.943468,-5.03,-12.73,13.62
21,2019,0.103411,0.149394,0.949920,-18.02,-4.72,-2.37
22,2129,0.105198,0.141263,0.979756,15079.97,1793.27,-564.38
23,2229,0.076925,0.202705,0.903641,11529.98,-4.72,-153.37
24,2329,0.142981,0.304040,0.868880,12.98,-232.72,2192.63
25,2439,0.126766,0.332679,0.864071,-440.02,369.28,-734.37
26,2539,0.112928,0.355210,0.867821,218.98,-13.72,41.63
27,2639,0.109057,0.376888,0.867895,227.99,-54.71,136.64
28,2739,0.102160,0.393373,0.870320,-164.01,115.29,-239.36
29,2849,0.096005,0.407660,0.872070,205.99,-68.71,184.64
30,2949,0.093849,0.421837,0.871928,-36.02,50.28,-78.37
31,3049,0.087750,0.431232,0.873529,-64.01,17.29,-47.36
32,3159,0.086338,0.440958,0.873443,92.99,-56.71,114.64
33,3259,0.083178,0.448583,0.873662,-146.02,59.28,-147.37
34,3359,0.079376,0.454900,0.875497,48.99,-41.71,99.64
35,3459,0.078780,0.461551,0.874987,-30.02,-2.72,-0.37
36,3559,0.075454,0.466033,0.875250,-83.02,30.28,-79.37
37,3669,0.074275,0.470611,0.874210,78.98,-45.72,105.63
38,3769,0.073254,0.474668,0.873472,-69.02,33.28,-82.37
39,3869,0.073723,0.473904,0.874822,197.98,-71.72,200.63
40,3969,0.071448,0.473237,0.878790,164.98,-76.72,113.63
41,4069,0.070486,0.480177,0.871341,-253.01,74.29,-251.36
42,4179,0.060951,0.480491,0.872096,119.97,-24.73,37.62
43,4279,0.065646,0.485538,0.869295,354.99,-173.71,372.64
44,4379,0.067751,0.489296,0.866291,-335.03,188.27,-426.38
45,4489,0.063369,0.489012,0.867474,-29.01,-37.71,91.64
46,4589,0.066585,0.492597,0.864213,-53.02,-15.72,34.63
47,4689,0.063092,0.491891,0.866586,-137.01,18.29,-37.36
48,4789,0.062065,0.492756,0.866681,340.99,-118.71,265.64
49,4899,0.067142,0.498562,0.859126,45.98,27.28,-43.37
50,4999,0.062101,0.496558,0.862628,37.97,88.27,-166.38
1,0,0.012409,0.000838,0.999949,5.98,-0.72,6.63
2,99,0.023030,0.000837,1.000089,-1.02,-4.72,-7.37
3,199,0.031106,0.000872,1.000501,-7.03,3.27,1.62
4,299,0.038025,0.000499,1.000614,-16.02,-0.72,-3.37
5,399,0.044603,0.000457,1.001002,-6.01,-0.71,-2.36
6,499,0.049004,0.000201,1.001204,-5.02,4.28,20.63
7,599,0.055234,0.000423,1.001485,-7.03,-6.73,12.62
8,699,0.059963,0.001051,1.001395,-19.02,3.28,-8.37
9,799,0.063048,0.000249,1.001648,-7.02,-14.72,27.63
10,899,0.068692,0.000207,1.001863,-6.02,-8.72,11.63
11,999,0.083376,-0.009679,0.967310,-5642.03,-508.73,1236.62
12,1109,0.079489,-0.067594,1.005617,8653.97,1804.27,1454.62
13,1209,-0.231506,0.227416,0.963818,15844.98,-2056.72,-436.37
14,1309,-0.174905,0.227925,1.041686,2755.96,78.26,446.61
15,1419,-0.135912,0.207465,1.040949,100.97,-16.73,32.62
16,1519,-0.103098,0.195146,1.035177,-108.02,3.28,-3.37
17,1619,-0.077037,0.184986,1.025675,38.98,8.28,-3.37
18,1719,-0.054537,0.176772,1.021755,-18.01,-10.71,2.64
19,1829,-0.033782,0.169551,1.017434,-26.02,0.28,-2.37
20,1929,-0.017971,0.163817,1.011765,-18.01,-3.71,-2.36
21,2029,0.001089,0.149897,1.039631,14288.97,1182.27,-573.38
22,2139,-0.010066,0.209604,0.952044,11961.98,-113.72,-77.37
23,2239,-0.005449,0.266252,0.908137,-576.02,1274.28,1752.63
24,2339,0.002175,0.297776,0.903024,-254.02,450.28,-865.37
25,2439,0.010193,0.323253,0.905582,280.98,-107.72,249.63
26,2539,0.024369,0.350072,0.901383,11.98,-65.72,138.63
27,2649,0.029260,0.370159,0.899902,-178.02,91.28,-200.37
28,2749,0.034662,0.388569,0.896409,165.98,-93.72,235.63
29,2849,0.041872,0.405939,0.891682,-141.02,49.28,-113.37
30,2949,0.042928,0.418396,0.889514,-62.02,11.28,-24.37
31,3059,0.048422,0.430980,0.885583,79.97,-52.73,121.62
32,3159,0.050511,0.440615,0.883543,-140.01,60.29,-139.36
33,3259,0.051498,0.448475,0.881826,67.98,-54.72,123.63
34,3359,0.054938,0.456676,0.878847,-38.02,11.28,-15.37
35,3469,0.055042,0.462127,0.877762,-76.01,17.29,-43.36
36,3569,0.057144,0.467822,0.876235,73.98,-46.72,119.63
37,3669,0.058876,0.472388,0.874809,-128.03,42.27,-89.38
38,3769,0.058151,0.475446,0.874860,14.97,-21.73,56.62
39,3879,0.060867,0.479436,0.873256,-20.02,-4.72,4.63
40,3979,0.060594,0.481656,0.873082,-51.03,22.27,-51.38
41,4079,0.061552,0.483799,0.872019,66.98,-39.72,96.63
42,4189,0.062623,0.486244,0.870896,-67.02,20.28,-68.37
43,4289,0.062343,0.487443,0.871004,13.99,-13.71,22.64
44,4389,0.063808,0.489469,0.869904,22.97,-8.73,16.62
45,4489,0.062947,0.490293,0.869318,-52.03,33.27,-61.38
46,4589,0.062912,0.491599,0.868234,42.99,-29.71,58.64
47,4699,0.063631,0.492855,0.867660,-43.04,27.26,-41.39
48,4799,0.063035,0.493300,0.867337,-4.02,1.28,7.63
49,4899,0.063389,0.494264,0.866495,29.98,-6.72,29.63
50,4999,0.062811,0.494864,0.866237,-54.02,19.28,-62.37
1,0,0.013471,-0.000498,1.000023,4.98,9.28,6.63
2,99,0.023091,0.000305,0.999163,-7.02,1.28,-0.37
3,199,0.029656,-0.000441,0.999439,8.97,-0.73,9.62
4,299,0.039393,-0.000910,1.000901,-3.02,-12.72,40.63
5,399,0.046645,-0.001162,1.000935,-6.01,2.29,-11.36
6,499,0.054090,-0.001504,1.001074,-6.03,3.27,8.62
7,599,0.058477,-0.001447,1.001760,-10.02,0.28,-24.37
8,699,0.061621,-0.001784,1.001830,-5.01,-1.71,9.64
9,799,0.065227,-0.001666,1.001999,-2.01,4.29,-1.36
10,899,0.068767,-0.002556,1.002344,-4.02,3.28,20.63
11,999,0.071631,-0.002469,1.003352,-4.02,-0.72,-45.37
12,1109,0.076353,0.002731,0.901010,-5087.02,-1366.72,704.63
13,1209,0.055428,-0.062997,0.964899,-43.03,-2850.73,189.62
14,1309,0.085543,-0.048992,1.009756,16432.98,4178.28,522.63
15,1419,0.200038,-0.039779,1.082729,-7045.02,-2998.72,600.63
16,1519,0.183559,0.010440,1.053625,1095.00,125.30,547.65
17,1619,0.170998,0.027437,1.033977,10.98,20.28,-22.37
18,1719,0.156421,0.044503,1.032052,14.98,3.28,-34.37
19,1829,0.143407,0.057434,1.028274,-5.03,-0.73,33.62
20,1929,0.134892,0.068846,1.021712,-15.01,1.29,9.64
21,2029,0.126720,0.078492,1.018240,9.98,-3.72,-17.37
22,2139,0.127390,0.076712,1.040942,12233.98,686.28,-401.37
23,2239,0.103845,0.117679,0.976321,15495.96,958.26,-826.39
24,2339,0.086597,0.189873,0.928058,1981.99,-1408.71,2055.64
25,2439,0.084626,0.233166,0.923327,-646.00,316.30,-741.35
26,2539,0.077493,0.269250,0.919580,-88.01,-8.71,62.64
27,2649,0.080476,0.305598,0.910572,71.99,-72.71,178.64
28,2749,0.077426,0.334059,0.904379,-273.03,103.27,-236.38
29,2849,0.074102,0.358177,0.899135,118.99,-104.71,232.64
30,2949,0.075652,0.381204,0.892479,-98.03,19.27,-52.38
31,3059,0.071788,0.397536,0.890027,-97.02,10.28,-38.37
32,3159,0.072367,0.414055,0.885580,92.98,-82.72,164.63
33,3259,0.072109,0.427346,0.882294,-158.01,63.29,-162.36
34,3359,0.069326,0.437819,0.880198,70.98,-44.72,84.63
35,3469,0.070183,0.448278,0.876566,-29.01,4.29,8.64
36,3569,0.067708,0.455208,0.875621,-90.01,28.29,-59.36
37,3669,0.067947,0.462417,0.873702,58.99,-55.71,110.64
38,3769,0.068205,0.468362,0.872454,-98.00,42.30,-88.35
39,3869,0.066209,0.472463,0.871577,9.98,-14.72,32.63
40,3979,0.067350,0.476974,0.870099,-3.02,-3.72,20.63
41,4079,0.066306,0.479893,0.869575,-74.02,29.28,-64.37
42,4189,0.066591,0.482521,0.869588,54.99,-32.71,79.64
43,4289,0.067181,0.485358,0.868097,-89.01,34.29,-77.36
44,4389,0.066053,0.486855,0.868679,-0.01,-18.71,34.64
45,4489,0.066540,0.489354,0.868039,-4.01,-11.71,18.64
46,4589,0.065728,0.490635,0.868227,-57.03,20.27,-40.38
47,4699,0.066209,0.491963,0.868020,27.99,-16.71,44.64
48,4799,0.066581,0.493403,0.867277,-42.02,12.28,-39.37
49,4899,0.065763,0.494260,0.866554,0.98,-8.72,19.63
50,4999,0.066623,0.495538,0.865591,5.98,-9.72,24.63
1,0,0.013325,0.000271,1.000059,9.98,-8.72,19.63
2,99,0.023259,0.000006,1.000751,-8.02,0.28,-15.37
3,199,0.030861,-0.000328,1.000532,-11.02,2.28,8.63
4,299,0.039045,-0.001180,1.000658,-8.01,5.29,4.64
5,399,0.045744,-0.001941,1.000857,-2.03,0.27,8.62
6,499,0.050559,-0.002386,1.000824,-8.01,-13.71,0.64
7,599,0.055202,-0.002801,1.001328,-3.01,2.29,-1.36
8,699,0.058379,-0.002788,1.001536,-15.01,-1.71,5.64
9,799,0.062581,-0.002428,1.000999,-17.00,3.30,-14.35
10,899,0.065457,-0.002214,1.001696,-7.02,2.28,7.63
11,999,0.066912,-0.002619,1.002013,-5.03,-1.73,4.62
12,1109,0.069541,-0.002395,1.002558,-10.02,-2.72,-2.37
13,1209,0.071519,-0.002662,1.002581,-1.01,5.29,5.64
14,1309,0.072871,-0.002853,1.002803,-0.02,0.28,-0.37
15,1409,0.074570,-0.003253,1.003046,-9.02,2.28,1.63
16,1509,0.075354,-0.003007,1.002538,-10.02,-9.72,34.63
17,1619,0.077321,-0.002926,1.002602,-7.01,-6.71,-11.36
18,1719,0.078077,-0.002015,1.001575,8.96,-0.74,33.61
19,1819,0.077255,-0.006258,0.934656,-6245.01,425.29,1025.64
20,1919,0.100653,-0.067158,0.999741,6012.98,447.28,1052.63
21,2019,0.085917,-0.049013,1.046257,14948.99,4221.29,510.64
22,2129,0.096004,0.034562,1.068107,4177.99,51.29,537.64
23,2229,0.088501,0.048380,1.066538,-299.02,-34.72,74.63
24,2329,0.088349,0.059228,1.049420,74.98,-36.72,45.63
25,2439,0.086975,0.069364,1.038002,44.98,13.28,-36.37
26,2539,0.084196,0.079079,1.033624,-4.01,5.29,-2.36
27,2639,0.082439,0.086531,1.026534,-5.01,-4.71,7.64
28,2739,0.082537,0.093360,1.022266,1.99,-2.71,19.64
29,2839,0.086174,0.089478,1.044309,12114.99,641.29,-789.36
30,2949,0.074048,0.139956,0.969881,14368.98,439.28,-659.37
31,3049,0.065664,0.210603,0.926686,1157.99,-1144.71,2262.64
32,3159,0.064122,0.254539,0.920403,-331.02,313.28,-758.37
33,3259,0.062886,0.288334,0.917515,298.00,-109.70,240.65
34,3359,0.069140,0.321489,0.910227,7.98,-14.72,19.63
35,3459,0.066601,0.346321,0.906211,-223.01,100.29,-212.36
36,3559,0.067006,0.368801,0.901570,195.98,-127.72,281.63
37,3669,0.069108,0.388825,0.896527,-182.02,77.28,-179.37
38,3769,0.066116,0.403776,0.893815,1.00,-32.70,60.65
39,3869,0.068316,0.418902,0.888910,52.99,-44.71,109.64
40,3969,0.067090,0.430660,0.885546,-178.02,80.28,-169.37
41,4069,0.065701,0.440398,0.882888,105.98,-70.72,144.63
42,4179,0.067193,0.449975,0.879256,-84.02,30.28,-74.37
43,4279,0.064763,0.456651,0.878219,-40.01,22.29,-10.36
44,4379,0.066012,0.463827,0.875104,66.99,-49.71,122.64
45,4489,0.065187,0.468901,0.873573,-139.02,47.28,-110.37
46,4589,0.064797,0.473306,0.872546,57.99,-45.71,106.64
47,4689,0.066627,0.477654,0.870941,-46.01,24.29,-44.36
48,4789,0.065435,0.480288,0.870456,-24.03,9.27,-29.38
49,4899,0.066399,0.483607,0.869256,42.98,-24.72,65.63
50,4999,0.065992,0.486080,0.868895,-86.02,38.28,-90.37
1,0,0.012556,0.000069,1.000590,2.98,11.28,-34.37
2,99,0.022331,-0.000934,1.001055,10.98,3.28,1.63
3,199,0.030787,-0.000944,1.001121,-3.02,8.28,-12.37
4,299,0.036618,-0.001832,1.001177,-3.04,-1.74,9.61
5,399,0.043132,-0.001891,1.000455,5.97,-6.73,16.62
6,499,0.049016,-0.001996,1.000593,8.97,5.27,10.62
7,599,0.053908,-0.002324,1.000654,-11.03,6.27,0.62
8,699,0.057644,-0.002401,1.000597,-5.04,7.26,-1.39
9,799,0.060271,-0.002100,1.001464,1.96,0.26,1.61
10,899,0.063969,-0.002064,1.002017,-10.04,-2.74,5.61
11,999,0.066434,-0.002363,1.002250,-13.04,5.26,-1.39
12,1109,0.068585,-0.002690,1.002393,-11.03,4.27,3.62
13,1209,0.070597,-0.003078,1.002239,-19.03,-2.73,3.62
14,1309,0.072819,-0.002786,1.001651,-7.04,-7.74,15.61
15,1409,0.074030,-0.003508,0.994761,-105.04,14.26,-5.39
16,1509,0.073393,-0.041401,0.986396,-4554.04,-560.74,371.61
17,1619,0.100684,-0.079324,0.997028,15781.96,1289.26,879.61
18,1719,0.121923,-0.061369,0.901806,-735.03,3295.27,-1866.38
19,1819,0.102036,0.000878,0.839873,-1618.03,154.27,665.62
20,1919,0.097290,0.017734,0.870927,-28.03,55.27,-59.38
21,2019,0.091151,0.033088,0.884726,-48.03,-7.73,-4.38
22,2129,0.091041,0.047328,0.901527,-30.04,-7.74,11.61
23,2229,0.089794,0.059854,0.914801,-6.02,9.28,-24.37
24,2329,0.087342,0.069969,0.926578,-13.03,8.27,-7.38
25,2439,0.091685,0.031052,1.068552,8540.96,338.26,-209.39
26,2539,0.092465,0.041716,1.059336,17134.97,1956.27,-904.38
27,2639,0.066322,0.123473,0.971155,6961.97,-1033.73,762.62
28,2739,0.085354,0.181852,0.953202,-886.04,347.26,225.61
29,2849,0.074358,0.227611,0.940341,-636.01,202.29,-314.36
30,2949,0.070395,0.269198,0.926186,229.97,-150.73,343.62
31,3049,0.072355,0.305352,0.913092,-179.03,88.27,-176.38
32,3159,0.066110,0.332934,0.907896,-102.03,21.27,-69.38
33,3259,0.066753,0.359051,0.900402,166.97,-84.73,199.62
34,3359,0.065964,0.379750,0.894527,-171.03,101.27,-220.38
35,3459,0.062783,0.395952,0.891455,116.96,-40.74,109.61
36,3559,0.065317,0.412599,0.886025,29.97,-15.73,18.62
37,3669,0.062728,0.423983,0.883570,-95.03,41.27,-97.38
38,3769,0.063275,0.434979,0.881153,131.98,-73.72,162.63
39,3869,0.064178,0.444929,0.878513,-106.04,54.26,-132.39
40,3969,0.062273,0.452105,0.877496,37.95,-21.75,32.60
41,4069,0.063656,0.459633,0.875148,26.96,-22.74,49.61
42,4179,0.062909,0.464658,0.874032,-81.04,28.26,-70.39
43,4279,0.062879,0.469168,0.873339,78.97,-48.73,97.62
44,4379,0.063732,0.473459,0.871761,-49.03,35.27,-61.38
45,4489,0.062114,0.475550,0.872233,50.97,-33.73,77.62
46,4589,0.065188,0.479049,0.871041,64.98,-44.72,101.63
47,4689,0.064303,0.480905,0.871602,-154.04,75.26,-163.39
48,4789,0.063203,0.481184,0.872629,150.98,-119.72,251.63
49,4899,0.068530,0.486529,0.869363,-59.03,13.27,-42.38
50,4999,0.064068,0.486696,0.870231,-328.04,179.26,-360.39
1,0,0.011274,-0.000572,1.001048,-1.04,-4.74,-9.39
2,99,0.021003,-0.000637,1.001170,7.97,-2.73,5.62
3,199,0.031123,0.000297,0.999149,-4.01,10.29,-11.36
4,299,0.036702,0.000230,0.998933,4.96,-1.74,11.61
5,399,0.044906,0.000136,1.000050,-18.02,-8.72,-4.37
6,499,0.050745,-0.007469,1.014054,5.98,33.28,14.63
7,599,0.055158,-0.005547,1.012555,-84.02,-3.72,16.63
8,699,0.058873,-0.003455,1.009028,3.99,0.29,3.64
9,799,0.062835,-0.003124,1.008832,3.98,-3.72,5.63
10,899,0.066003,-0.003136,1.007841,-9.02,-7.72,4.63
11,999,0.068896,-0.003310,1.006761,-3.02,-4.72,-3.37
12,1109,0.070660,-0.002946,1.006209,-7.02,-5.72,-1.37
13,1209,0.072745,-0.002435,1.005831,-6.02,-5.72,-4.37
14,1309,0.073491,-0.001964,1.005217,-2.03,-3.73,6.62
15,1409,0.076085,-0.001179,1.004494,4.98,6.28,-1.37
16,1509,0.076459,-0.000896,1.004300,-7.03,-11.73,-14.38
17,1619,0.062495,-0.011642,0.947702,-4169.01,-3044.71,1274.64
18,1719,0.052182,-0.073840,0.990799,-1123.01,164.29,1669.64
19,1819,0.079597,-0.060187,1.031643,17020.97,3968.27,-320.38
20,1919,-0.019305,0.024094,0.951388,-11548.03,-2922.73,-1753.38
21,2029,-0.005373,0.060887,0.947551,1242.98,131.28,565.63
22,2129,0.010479,0.069365,0.946304,56.99,4.29,-3.36
23,2229,0.020621,0.079592,0.955810,32.98,15.28,-30.37
24,2329,0.026935,0.087205,0.961472,-17.01,-2.71,-3.36
25,2439,0.035560,0.093456,0.965278,-15.03,-2.73,5.62
26,2539,0.041555,0.099319,0.969392,9.99,6.29,-13.36
27,2639,0.050991,0.094067,0.996583,12045.99,701.29,-903.36
28,2739,0.031380,0.133291,0.941106,15961.98,1069.28,-816.37
29,2849,0.030769,0.206330,0.901275,1501.97,-1275.73,2415.62
30,2949,0.038326,0.248911,0.901989,-456.01,262.29,-684.36
31,3049,0.040683,0.282799,0.903145,177.98,-113.72,256.63
32,3159,0.050359,0.316968,0.898104,-15.01,-6.71,6.64
33,3259,0.050545,0.342295,0.895998,-250.03,98.27,-212.38
34,3359,0.053688,0.365378,0.892321,174.97,-126.73,297.62
35,3459,0.058648,0.386721,0.887933,-189.02,51.28,-139.37
36,3559,0.057188,0.401988,0.886180,-92.03,11.27,-22.38
37,3669,0.061148,0.417510,0.882713,63.99,-65.71,144.64
38,3769,0.061675,0.429714,0.881140,-195.02,88.28,-182.37
39,3869,0.060714,0.439466,0.879765,102.00,-57.70,148.65
40,3969,0.063668,0.449385,0.876730,-41.02,8.28,-16.37
41,4069,0.062206,0.456589,0.875779,-95.01,43.29,-74.36
42,4179,0.063673,0.463371,0.874018,75.98,-65.72,130.63
43,4279,0.064426,0.469026,0.872174,-120.01,56.29,-119.36
44,4379,0.058291,0.480828,0.878645,-67.02,-244.72,315.63
45,4489,0.062268,0.481923,0.878579,-351.02,144.28,-241.37
46,4589,0.059899,0.481518,0.878962,-80.03,-20.73,76.62
47,4689,0.063836,0.485257,0.876266,10.99,-75.71,158.64
48,4789,0.062184,0.487208,0.873865,-277.03,90.27,-206.38
49,4899,0.066620,0.495970,0.861991,-1112.03,216.27,-398.38
50,4999,0.048986,0.491334,0.862390,402.98,87.28,383.63
1,0,0.011915,0.000399,0.999034,-18.03,-1.73,6.62
2,99,0.021878,0.000097,0.999897,1.98,7.28,9.63
3,199,0.031188,-0.000288,1.000576,0.97,6.27,0.62
4,299,0.036832,-0.001329,1.001538,-8.01,-17.71,-15.36
5,399,0.044229,-0.000804,1.001348,-7.02,-8.72,5.63
6,499,0.050993,-0.001072,1.000839,-6.02,3.28,21.63
7,599,0.055955,-0.001483,1.000992,-2.01,13.29,-6.36
8,699,0.059550,-0.001356,1.001653,-4.03,-1.73,-10.38
9,799,0.063302,-0.001431,1.001300,-4.02,1.28,13.63
10,899,0.067387,-0.001953,1.001384,-8.02,5.28,0.63
11,999,0.069670,-0.001664,1.001693,-3.02,6.28,-4.37
12,1109,0.071648,-0.001473,1.001664,3.98,-4.72,7.63
13,1209,0.074115,-0.001714,1.002242,-14.02,2.28,-2.37
14,1309,0.075481,-0.001370,1.002057,-2.02,-1.72,-5.37
15,1409,0.075561,-0.001040,1.001972,-4.02,4.28,0.63
16,1509,0.076178,-0.000394,1.001809,-14.02,-12.72,8.63
17,1619,0.077528,-0.000302,1.002055,1.99,8.29,12.64
18,1719,0.092993,-0.034282,1.021893,-3966.02,-167.72,1631.63
19,1819,0.077080,-0.069701,0.992814,11159.98,663.28,328.63
20,1919,0.163767,0.148355,0.913805,5477.97,-16407.73,617.62
21,2019,0.143976,0.200585,0.851941,3915.99,404.29,913.64
22,2129,0.138451,0.191569,0.864522,-3.02,-12.72,33.63
23,2229,0.131082,0.183521,0.885416,37.00,11.30,-23.35
24,2329,0.121027,0.176331,0.903743,-15.04,11.26,-25.39
25,2439,0.115941,0.168884,0.916904,-12.03,-5.73,19.62
26,2539,0.111033,0.163396,0.927762,3.98,-3.72,-7.37
27,2639,0.107758,0.144357,1.000015,605.98,13.28,-117.37
28,2739,0.107409,0.137293,1.013714,15425.98,1763.28,-623.37
29,2849,0.077394,0.203542,0.925162,9084.97,-698.73,342.62
30,2949,0.109414,0.258206,0.903561,-777.02,772.28,972.63
31,3049,0.094828,0.294745,0.896974,-304.01,196.29,-387.36
32,3159,0.089754,0.326134,0.889141,328.98,-132.72,333.63
33,3259,0.088609,0.353638,0.882282,-123.02,92.28,-218.37
34,3359,0.081373,0.373977,0.881084,45.98,10.28,-7.37
35,3459,0.081283,0.394121,0.877741,174.98,-60.72,158.63
36,3559,0.079285,0.409743,0.876199,-139.02,102.28,-223.37
37,3669,0.076286,0.422838,0.875437,180.98,-73.72,162.63
38,3769,0.077472,0.435324,0.872410,-33.02,30.28,-67.37
39,3869,0.074030,0.443904,0.872931,-31.02,24.28,-57.37
40,3969,0.074127,0.452864,0.871909,114.97,-53.73,124.62
41,4069,0.073385,0.460150,0.870711,-112.02,67.28,-132.37
42,4179,0.071161,0.465647,0.870937,90.98,-42.72,92.63
43,4279,0.072384,0.471510,0.869592,-27.01,7.29,-21.36
44,4379,0.073734,0.481822,0.866709,-137.02,-71.72,-79.37
45,4489,0.068876,0.481597,0.865521,-9.01,33.29,4.64
46,4589,0.064142,0.481625,0.866948,174.98,-52.72,182.63
47,4689,0.067645,0.491555,0.859352,-710.02,30.28,-277.37
48,4789,0.060734,0.493733,0.856705,21.99,-42.71,83.64
49,4899,0.062587,0.497801,0.849420,-206.01,-21.71,17.64
50,4999,0.054915,0.497028,0.850020,-270.03,41.27,-45.38
1,0,0.013966,0.000490,0.999913,-16.02,-10.72,8.63
2,99,0.025599,0.000981,0.999601,7.99,7.29,-6.36
3,199,0.034810,0.001086,1.000727,3.99,-1.71,10.64
4,299,0.042712,0.001286,1.000458,-10.00,1.30,-4.35
5,399,0.050015,0.000759,1.000137,-4.02,8.28,8.63
6,499,0.055362,0.000788,1.000268,-3.01,-0.71,4.64
7,599,0.060419,0.000300,1.000873,-8.01,-5.71,4.64
8,699,0.031008,-0.052484,1.056685,-5852.01,21.29,491.64
9,799,0.058615,-0.087334,1.038702,8220.97,3297.27,1077.62
10,899,-0.249248,0.227310,0.974033,14679.00,-7320.70,-1703.35
11,999,-0.195038,0.152981,1.137408,1100.00,-200.70,-268.35
12,1109,-0.159031,0.166670,1.096147,-754.01,74.29,419.64
13,1209,-0.122034,0.162686,1.084952,-62.01,19.29,-35.36
14,1309,-0.094945,0.157047,1.068533,-7.02,10.28,-17.37
15,1419,-0.067268,0.152621,1.056042,-9.01,-10.71,20.64
16,1519,-0.044310,0.148950,1.047146,-17.01,12.29,-13.36
17,1619,-0.022764,0.112285,1.155893,2627.99,35.29,-287.36
18,1719,-0.006665,0.110581,1.141962,15985.99,2093.29,-1209.36
19,1829,-0.016070,0.182741,1.036498,7880.99,-1094.71,549.64
20,1929,0.013160,0.236167,1.003214,-752.02,600.28,1373.63
21,2029,0.017499,0.277258,0.977285,-827.00,422.30,-479.35
22,2139,0.018055,0.309054,0.959713,-4.01,-22.71,38.64
23,2239,0.026200,0.338773,0.942909,184.99,-87.71,222.64
24,2339,0.030835,0.362623,0.930493,-140.00,90.30,-221.35
25,2439,0.032998,0.381578,0.921533,154.99,-54.71,120.64
26,2539,0.039396,0.399173,0.912891,33.00,7.30,-8.35
27,2649,0.041025,0.412407,0.906882,-39.02,38.28,-81.37
28,2749,0.045120,0.424865,0.901518,149.98,-64.72,142.63
29,2849,0.048253,0.435380,0.896831,-90.02,58.28,-132.37
30,2949,0.048957,0.443549,0.893121,51.99,-15.71,48.64
31,3049,0.052741,0.451793,0.888924,38.98,-9.72,39.63
32,3159,0.052735,0.457794,0.886254,-70.01,37.29,-76.36
33,3259,0.049507,0.466080,0.880890,128.98,-61.72,120.63
34,3359,0.051121,0.474423,0.880652,-124.01,-8.71,-12.36
35,3469,0.052988,0.475582,0.879845,-24.01,8.29,27.64
36,3569,0.056204,0.477190,0.877090,-31.01,-34.71,37.64
37,3669,0.056393,0.479088,0.876561,-97.02,10.28,-68.37
38,3769,0.056334,0.481324,0.874848,65.99,-52.71,117.64
39,3879,0.058371,0.483297,0.873795,-63.01,38.29,-71.36
40,3979,0.063472,0.486568,0.871362,446.00,-333.70,576.65
41,4079,0.056088,0.490374,0.859718,643.99,-379.71,818.64
42,4189,0.056478,0.491374,0.862600,-483.01,452.29,-738.36
43,4289,0.053750,0.488105,0.868090,95.99,1.29,37.64
44,4389,0.058207,0.490013,0.868252,62.98,-42.72,121.63
45,4489,0.061098,0.491141,0.867694,-103.01,38.29,-60.36
46,4589,0.070660,0.496476,0.862679,424.98,-113.72,236.63
47,4699,0.058518,0.491325,0.866436,64.99,155.29,-267.36
48,4799,0.066636,0.493922,0.866443,304.99,-13.71,65.64
49,4899,0.066615,0.493731,0.865351,92.98,-30.72,50.63
50,4999,0.063008,0.492196,0.865887,-48.01,-21.71,107.64
1,0,0.012721,-0.000608,1.001616,-3.01,5.29,-10.36
2,99,0.023754,0.000029,1.001195,-2.01,-7.71,31.64
3,199,0.033955,-0.000126,1.001038,-3.02,13.28,-5.37
4,299,0.045171,-0.000093,1.001088,-6.01,-5.71,33.64
5,399,0.050183,0.000174,1.001278,-4.01,-3.71,-12.36
6,499,0.060338,0.000949,1.001273,-14.02,-6.72,9.63
7,609,0.061573,0.000784,1.001380,-12.02,-15.72,8.63
8,709,0.067896,0.001066,1.001250,3.98,2.28,-6.37
9,809,0.069590,0.001561,1.000738,-15.02,24.28,5.63
10,909,0.071194,0.001048,1.004586,-26.02,3.28,85.63
11,1009,0.076074,0.000978,1.002584,-16.02,8.28,17.63
12,1119,0.078025,0.000645,1.001798,-1.02,-2.72,-1.37
13,1219,0.079719,0.000727,1.001423,-7.02,4.28,-21.37
14,1319,0.083008,-0.005447,0.995263,-181.03,-144.73,32.62
15,1429,0.097560,-0.034206,0.961206,-6036.03,-116.73,461.62
16,1529,0.069719,-0.084981,0.961518,14467.00,2779.30,-694.35
17,1629,0.162948,-0.033896,0.886069,-518.04,1893.26,-1356.39
18,1729,0.155677,0.036370,0.787312,2308.99,66.29,343.64
19,1839,0.147554,0.049423,0.817462,-92.03,-7.73,-15.38
20,1939,0.136164,0.061488,0.842723,-41.01,12.29,-21.36
21,2039,0.125164,0.070132,0.862437,-3.03,2.27,-0.38
22,2149,0.119513,0.079530,0.882179,-11.02,2.28,6.63
23,2249,0.113190,0.087243,0.898996,-13.02,4.28,-4.37
24,2349,0.118326,0.072578,0.950699,11355.99,756.29,-185.36
25,2449,0.098466,0.111950,0.952953,16859.98,730.28,-1020.37
26,2549,0.070709,0.185700,0.890489,5375.00,-1412.70,1329.65
27,2659,0.080312,0.228739,0.903716,-1315.02,189.28,-467.37
28,2759,0.072105,0.266842,0.898625,-371.03,-93.73,205.62
29,2859,0.073424,0.305327,0.887066,139.98,-145.72,335.63
30,2959,0.070938,0.336191,0.880134,-249.02,133.28,-304.37
31,3069,0.067012,0.360868,0.875871,141.99,-83.71,206.64
32,3169,0.069297,0.384297,0.870819,25.99,14.29,-11.36
33,3269,0.066001,0.401649,0.869180,-79.03,66.27,-140.38
34,3369,0.065910,0.417129,0.867713,200.96,-76.74,181.61
35,3479,0.066730,0.430416,0.865899,-113.03,77.27,-166.38
36,3579,0.064277,0.440374,0.865859,47.96,-25.74,55.61
37,3679,0.066165,0.450687,0.863206,64.97,-24.73,58.62
38,3779,0.065135,0.458062,0.862892,-123.01,52.29,-117.36
39,3889,0.065155,0.464641,0.862350,38.98,-50.72,119.63
40,3989,0.066400,0.470637,0.861469,-99.01,29.29,-67.36
41,4089,0.064876,0.474818,0.862423,-32.03,-4.73,9.62
42,4199,0.066601,0.479232,0.861585,15.98,-36.72,55.63
43,4299,0.066128,0.482837,0.861899,-94.02,26.28,-82.37
44,4399,0.065468,0.485609,0.861287,71.97,-31.73,109.62
45,4499,0.066354,0.488496,0.860675,-49.02,19.28,-35.37
46,4599,0.065295,0.490071,0.861088,-39.02,6.28,-20.37
47,4709,0.066262,0.491849,0.861477,3.99,-31.71,50.64
48,4809,0.066150,0.492793,0.861239,-72.02,35.28,-54.37
49,4909,0.065616,0.493980,0.861971,43.98,-21.72,70.63
50,5009,0.066425,0.495318,0.861897,-14.03,11.27,-20.38
1,0,0.012757,-0.000993,1.001524,-5.02,-13.72,32.63
2,99,0.023673,-0.000976,1.001080,-16.04,6.26,-25.39
3,199,0.033502,-0.000450,1.001288,-13.04,-3.74,-10.39
4,299,0.042442,-0.000698,1.001484,-2.04,-2.74,18.61
5,399,0.049418,-0.001825,1.001851,-0.04,1.26,0.61
6,499,0.055201,-0.002141,1.001779,-1.04,0.26,-8.39
7,599,0.060172,-0.001861,1.001590,-7.04,-1.74,18.61
8,699,0.065515,-0.002392,1.001374,-2.02,-5.72,20.63
9,799,0.070257,-0.003228,1.001446,4.96,9.26,-16.39
10,899,0.072988,-0.002913,1.001582,-0.04,9.26,-11.39
11,999,0.074192,-0.002810,1.001129,-0.04,4.26,2.61
12,1109,0.075289,-0.002832,1.001147,-10.04,-3.74,-13.39
13,1209,0.077504,-0.001862,1.000247,-15.02,-1.72,-22.37
14,1309,0.080392,-0.001239,1.000104,-9.05,0.25,0.60
15,1419,0.072393,-0.043465,1.000477,-7691.03,-3676.73,545.62
16,1519,0.112853,-0.089537,1.011433,9672.97,7792.27,791.62
17,1619,-0.203147,0.225436,0.943731,14509.96,-4475.73,-2883.39
18,1719,-0.148291,0.231479,1.005514,3979.96,466.26,47.61
19,1829,-0.108932,0.210010,1.017014,81.97,-11.73,69.62
20,1929,-0.077309,0.197895,1.014466,-98.03,6.27,-10.38
21,2029,-0.053798,0.186993,1.007137,14.96,25.26,-35.39
22,2139,-0.035022,0.178678,1.004349,-5.04,-10.74,22.61
23,2239,-0.017232,0.171135,1.003445,-21.03,-3.73,11.62
24,2339,0.000802,0.163863,1.034756,241.98,36.28,-65.37
25,2439,0.022063,0.153470,1.052087,15182.97,1085.27,-851.38
26,2539,0.004850,0.212184,0.963035,11780.98,-145.72,-7.37
27,2649,0.029203,0.266009,0.930809,-1331.03,929.27,1136.62
28,2749,0.028406,0.301305,0.917370,85.97,189.27,-519.38
29,2849,0.034869,0.331086,0.910835,550.96,-167.74,340.61
30,2949,0.044227,0.357078,0.906050,-32.04,48.26,-122.39
31,3049,0.046248,0.376407,0.904876,-92.03,52.27,-109.38
32,3159,0.051995,0.395509,0.900197,197.97,-72.73,179.62
33,3259,0.055726,0.410794,0.897283,-148.03,94.27,-185.38
34,3359,0.056370,0.422523,0.895006,76.97,-42.73,80.62
35,3469,0.060507,0.435111,0.889959,17.97,2.27,0.62
36,3569,0.060049,0.443668,0.887024,-100.03,47.27,-106.38
37,3669,0.061711,0.451912,0.883869,88.96,-59.74,158.61
38,3769,0.063362,0.459670,0.881078,-142.04,47.26,-94.39
39,3879,0.063337,0.464763,0.878083,57.98,-9.72,39.63
40,3979,0.065092,0.470557,0.875318,50.96,-18.74,12.61
41,4079,0.064423,0.475262,0.873718,-41.04,35.26,-89.39
42,4189,0.065301,0.479097,0.871754,93.97,-40.73,110.62
43,4289,0.065845,0.482265,0.869956,-34.04,34.26,-57.39
44,4389,0.065246,0.484811,0.869948,28.97,-1.73,6.62
45,4489,0.066715,0.487726,0.868970,65.98,-19.72,49.63
46,4589,0.066901,0.489819,0.868616,-39.05,33.25,-73.40
47,4699,0.066876,0.491140,0.867911,58.97,-33.73,70.62
48,4799,0.059567,0.488858,0.868649,115.96,-130.74,231.61
49,4899,0.054380,0.494828,0.865981,-164.02,200.28,-402.37
50,4999,0.049789,0.494281,0.867338,92.98,63.28,-73.37
1,0,0.012171,-0.001194,0.999620,9.98,6.28,-16.37
2,99,0.023560,-0.001441,0.999571,21.97,-5.73,22.62
3,199,0.032637,-0.001613,1.000775,-7.04,-5.74,26.61
4,299,0.040351,-0.001760,1.002036,-12.04,10.26,-2.39
5,399,0.046781,-0.001922,1.002705,-2.03,0.27,-25.38
6,499,0.051807,-0.002260,1.002322,-2.03,-8.73,15.62
7,609,0.055950,-0.002200,1.003150,-0.04,-13.74,6.61
8,709,0.059709,-0.001710,1.003011,-0.05,-6.75,-1.40
9,809,0.064297,-0.001586,1.002820,-4.03,-5.73,14.62
10,909,0.067135,-0.001206,1.002566,-9.04,-11.74,32.61
11,1009,0.070096,-0.001212,1.002661,-10.03,-10.73,11.62
12,1119,0.072998,-0.000485,1.002248,-2.03,-2.73,-1.38
13,1219,0.075336,0.000316,1.002355,-14.04,-3.74,5.61
14,1319,0.059984,-0.016911,0.959727,-4633.03,-384.73,-27.38
15,1429,0.054112,-0.088518,1.020429,-2118.03,94.27,310.62
16,1529,0.050219,-0.083759,1.037565,18363.96,1756.26,1194.61
17,1629,-0.134071,0.104179,0.900337,-1159.02,-643.72,-939.37
18,1729,-0.105049,0.123502,0.954109,-2899.05,-39.75,713.60
19,1839,-0.077689,0.125553,0.964329,-46.05,-19.75,48.60
20,1939,-0.052162,0.124990,0.967743,-57.03,-2.73,7.62
21,2039,-0.031782,0.124255,0.969381,-6.04,4.26,-12.39
22,2149,-0.016383,0.124985,0.973484,-4.04,-5.74,13.61
23,2249,-0.001352,0.125239,0.976165,-10.04,-0.74,-6.39
24,2349,0.014721,0.115293,0.988021,11523.96,1895.26,-133.39
25,2449,0.029170,0.151644,0.945858,16863.97,1243.27,-360.38
26,2549,0.024459,0.215448,0.893394,3374.97,-1477.73,1854.62
27,2659,0.032595,0.251736,0.897085,-755.03,399.27,-664.38
28,2759,0.033706,0.284741,0.898482,-203.04,-18.74,127.61
29,2859,0.042212,0.318912,0.891521,27.96,-114.74,274.61
30,2959,0.044664,0.346437,0.886319,-316.04,113.26,-246.39
31,3069,0.045612,0.368845,0.883563,63.97,-94.73,213.62
32,3169,0.051491,0.390601,0.878621,-70.04,-4.74,20.61
33,3269,0.050994,0.406256,0.877423,-170.04,55.26,-116.39
34,3369,0.053136,0.420753,0.874848,117.97,-84.73,185.62
35,3479,0.055505,0.433514,0.872183,-147.03,63.27,-138.38
36,3579,0.054590,0.443282,0.870468,10.97,8.27,-34.38
37,3679,0.056741,0.453378,0.866666,97.96,-33.74,79.61
38,3779,0.057270,0.461100,0.865155,-89.03,63.27,-164.38
39,3889,0.057261,0.467169,0.864109,133.97,-54.73,132.62
40,3989,0.059964,0.473151,0.862451,-38.04,39.26,-76.39
41,4089,0.058966,0.476771,0.862763,15.97,16.27,-32.38
42,4199,0.060754,0.481680,0.861160,108.98,-34.72,76.63
43,4299,0.060534,0.484551,0.860604,-92.05,79.25,-165.40
44,4399,0.060439,0.486700,0.860295,132.97,-38.73,79.62
45,4499,0.062774,0.489203,0.861114,-29.05,27.25,-37.40
46,4599,0.061921,0.490067,0.862889,-30.05,2.25,-16.40
47,4709,0.063504,0.491589,0.864106,46.96,-19.74,42.61
48,4809,0.064409,0.492608,0.865323,-29.04,37.26,-72.39
49,4909,0.064520,0.493255,0.866614,82.96,-15.74,28.61
50,5009,0.065987,0.494500,0.867967,59.95,-0.75,-10.40
1,0,0.014369,-0.000700,0.999620,-13.02,7.28,-22.37
2,99,0.026196,-0.000691,1.000175,-9.06,-3.76,-13.41
3,199,0.033925,-0.000153,1.000592,19.96,11.26,17.61
4,299,0.038864,-0.000152,1.001167,7.96,5.26,37.61
5,399,0.044253,-0.001361,1.000703,-13.04,-19.74,16.61
6,499,0.051269,-0.002370,1.000730,-16.05,-8.75,-18.40
7,609,0.057379,-0.002257,1.002162,-14.05,1.25,0.60
8,709,0.062297,-0.002380,1.001989,-2.04,-2.74,30.61
9,809,0.066057,-0.002816,1.001621,3.94,0.24,21.59
10,909,0.068923,-0.003002,1.001803,-6.04,0.26,-5.39
11,1009,0.071048,-0.002922,1.001884,-3.05,1.25,-15.40
12,1119,0.072745,-0.002910,1.002045,-3.04,-7.74,-0.39
13,1219,0.075212,-0.003155,1.001505,-11.05,4.25,9.60
14,1319,0.077437,-0.003510,1.002070,-6.05,1.25,-3.40
15,1429,0.078798,-0.003062,1.001672,5.95,7.25,9.60
16,1529,0.079899,-0.002607,1.000913,19.94,19.24,-6.41
17,1629,0.062836,-0.011156,0.971025,-2830.05,-1852.75,-104.40
18,1729,0.078692,-0.044607,0.960361,-4282.04,1569.26,751.61
19,1839,0.097570,-0.038397,0.993282,16953.94,2902.24,-21.41
20,1939,0.191730,0.031097,0.882819,-3973.05,8170.25,-2539.40
21,2039,0.164722,0.048749,0.953519,-2276.04,-99.74,834.61
22,2149,0.156653,0.061043,0.966996,-71.04,32.26,-45.39
23,2249,0.144080,0.070925,0.962630,36.95,19.25,-53.40
24,2349,0.131159,0.080148,0.969229,20.94,-4.76,2.59
25,2449,0.123106,0.088171,0.971797,-18.06,-11.76,22.59
26,2549,0.117635,0.094204,0.974805,-1.05,0.25,-1.40
27,2659,0.132082,0.086294,0.983605,11687.94,1375.24,-161.41
28,2759,0.109517,0.136700,0.970157,16418.96,293.26,-1048.39
29,2859,0.087590,0.207121,0.909433,4174.94,-1823.76,1825.59
30,2959,0.093506,0.248283,0.916247,-1258.06,198.24,-460.41
31,3059,0.082935,0.284259,0.910174,-326.06,-74.76,170.59
32,3169,0.084294,0.319216,0.900269,-8.05,-128.75,277.60
33,3269,0.079976,0.347171,0.892949,-327.05,113.25,-250.40
34,3369,0.074748,0.369798,0.887752,125.96,-88.74,202.61
35,3479,0.075798,0.391009,0.881504,-88.04,28.26,-61.39
36,3579,0.071124,0.406950,0.877841,-95.05,31.25,-85.40
37,3679,0.070905,0.421892,0.874709,138.95,-79.75,167.60
38,3779,0.070700,0.434262,0.872431,-132.06,73.24,-139.41
39,3889,0.068255,0.443716,0.871557,72.96,-41.74,86.61
40,3989,0.069803,0.453326,0.868983,30.95,-3.75,26.60
41,4089,0.068226,0.459462,0.868461,-74.03,52.27,-110.38
42,4199,0.068112,0.465795,0.867432,88.96,-55.74,121.61
43,4299,0.068436,0.471745,0.865971,-68.05,38.25,-92.40
44,4399,0.066551,0.475576,0.866139,19.95,-8.75,22.60
45,4499,0.067292,0.480077,0.864799,49.97,-15.73,51.62
46,4599,0.066860,0.482970,0.864576,-66.05,37.25,-96.40
47,4709,0.066365,0.485996,0.864898,83.95,-39.75,88.60
48,4809,0.067116,0.488641,0.864184,-32.04,32.26,-56.39
49,4909,0.065905,0.489663,0.864455,-11.05,-1.75,3.60
50,5009,0.067091,0.492161,0.864393,32.96,-26.74,54.61
1,0,0.012702,-0.000352,1.000920,0.97,-16.73,-7.38
2,99,0.023608,-0.001293,1.002507,6.95,1.25,7.60
3,199,0.033921,-0.001982,1.001695,0.95,-0.75,16.60
4,299,0.040418,-0.003356,1.001536,13.95,5.25,11.60
5,399,0.046141,-0.003883,1.001237,0.94,-13.76,-7.41
6,499,0.052159,-0.004422,1.001018,-11.06,-6.76,-1.41
7,599,0.058318,-0.004221,1.000778,-10.06,0.24,9.59
8,699,0.063114,-0.004178,1.001398,-11.04,8.26,0.61
9,799,0.066477,-0.004050,1.001357,-4.03,-3.73,-1.38
10,899,0.069463,-0.004015,1.001560,-1.05,-5.75,3.60
11,999,0.072404,-0.003967,1.001422,2.95,-0.75,14.60
12,1109,0.075728,-0.004292,1.000938,-4.06,6.24,-4.41
13,1209,0.078297,-0.004385,1.001240,-4.06,11.24,-5.41
14,1309,0.079656,-0.004703,1.000857,-10.05,-0.75,-6.40
15,1419,0.082680,-0.003013,0.918280,-5322.04,-3260.74,418.61
16,1519,0.064523,-0.079854,0.983185,881.95,6.25,787.60
17,1619,0.081224,-0.059806,1.024273,16180.95,3752.25,-221.40
18,1719,-0.064157,0.056497,0.912952,-10298.05,199.25,-1297.40
19,1829,-0.038427,0.083815,0.948279,877.94,103.24,82.59
20,1929,-0.021756,0.090281,0.946501,67.95,-3.75,9.60
21,2029,-0.007037,0.097516,0.959345,-10.07,-10.77,9.58
22,2139,0.005988,0.102861,0.966345,-20.05,-1.75,-6.40
23,2239,0.016052,0.106598,0.969859,-4.05,3.25,-10.40
24,2339,0.024605,0.110416,0.975135,-3.06,7.24,2.59
25,2439,0.035557,0.101265,0.988353,11742.95,1669.25,-312.40
26,2539,0.047282,0.135765,0.959709,16738.94,1595.24,-689.41
27,2649,0.091270,0.256241,0.899326,2285.95,-1452.75,2231.60
28,2749,0.095334,0.283516,0.911263,-665.07,321.23,-669.42
29,2849,0.087235,0.311150,0.911742,-227.05,-119.75,297.60
30,2949,0.087730,0.341999,0.902499,-82.07,-121.77,272.58
31,3049,0.083536,0.366336,0.895503,-380.05,103.25,-221.40
32,3159,0.079367,0.386143,0.891498,78.93,-110.77,249.58
33,3259,0.079468,0.404974,0.885237,-131.05,24.25,-33.40
34,3359,0.074609,0.418143,0.882185,-116.06,31.24,-70.41
35,3469,0.074123,0.431571,0.877175,71.95,-75.75,167.60
36,3569,0.073014,0.442746,0.874033,-155.05,64.25,-142.40
37,3669,0.070369,0.451000,0.872131,70.96,-26.74,86.61
38,3769,0.070794,0.459883,0.868903,29.94,-1.76,12.59
39,3879,0.068756,0.465457,0.868357,-83.05,30.25,-77.40
40,3979,0.068471,0.471330,0.867032,99.95,-50.75,118.60
41,4079,0.069217,0.476669,0.865338,-79.04,46.26,-96.39
42,4189,0.066922,0.479963,0.865107,29.95,-18.75,55.60
43,4289,0.067937,0.483953,0.864269,28.95,-12.75,50.60
44,4389,0.066456,0.486666,0.864363,-61.05,29.25,-68.40
45,4489,0.066296,0.488717,0.863893,79.94,-31.76,72.59
46,4589,0.066782,0.490880,0.862707,-27.06,28.24,-41.41
47,4699,0.064815,0.491914,0.862302,-22.06,-10.76,28.59
48,4799,0.065413,0.493415,0.862160,-7.06,-19.76,63.59
49,4899,0.065299,0.494581,0.862588,-71.07,22.23,-55.42
50,4999,0.064946,0.495572,0.862824,19.94,-21.76,48.59
1,0,0.011987,-0.000206,0.999986,-17.06,-3.76,-10.41
2,99,0.021260,-0.000418,0.998435,0.92,2.22,7.57
3,199,0.030882,-0.000946,0.998857,-8.06,-5.76,11.59
4,299,0.038529,-0.000736,0.998904,-8.06,6.24,-15.41
5,399,0.044114,-0.001125,0.999438,-3.06,-6.76,7.59
6,499,0.050582,-0.000961,0.999966,-3.08,-1.78,-5.43
7,599,0.054744,-0.000456,1.000286,-10.07,6.23,-1.42
8,699,0.058317,-0.000667,1.000448,-3.07,-4.77,-5.42
9,799,0.061831,-0.000554,1.000879,-2.07,-7.77,15.58
10,899,0.064488,-0.000365,1.001117,0.94,0.24,-2.41
11,999,0.067077,-0.000517,1.000898,-1.07,-0.77,1.58
12,1109,0.068966,-0.000627,1.000804,-7.05,2.25,-2.40
13,1209,0.070443,-0.001050,1.001109,-9.06,5.24,-0.41
14,1309,0.071882,-0.000641,1.001587,-9.06,9.24,1.59
15,1419,0.071988,-0.001209,1.000053,-6.07,19.23,14.58
16,1519,0.073433,-0.014948,0.942023,-5286.06,-793.76,232.59
17,1619,0.095682,-0.069895,0.998441,2661.94,-2415.76,356.59
18,1719,0.103643,-0.055992,1.050973,16100.92,5350.22,22.57
19,1829,0.255522,-0.021267,1.173848,-4844.07,1405.23,-120.42
20,1929,0.228154,0.023647,1.120236,1224.92,53.22,52.57
21,2029,0.203592,0.037728,1.094605,-32.08,-5.78,-2.43
22,2139,0.184912,0.051693,1.078441,-41.07,-13.77,26.58
23,2239,0.170425,0.062995,1.064628,-8.06,-1.76,-10.41
24,2339,0.155439,0.072969,1.053289,-11.07,-2.77,-6.42
25,2439,0.142681,0.081190,1.043597,0.93,-7.77,-0.42
26,2539,0.142439,0.080102,1.067969,13027.92,627.22,-574.43
27,2649,0.111911,0.141031,0.978895,14044.92,141.22,-342.43
28,2749,0.104950,0.212138,0.924057,303.93,1264.23,1858.58
29,2849,0.099473,0.252969,0.922360,-34.07,319.23,-703.42
30,2949,0.094763,0.286082,0.922657,275.93,-133.77,297.58
31,3049,0.096545,0.318989,0.915641,-97.06,-25.76,56.59
32,3159,0.090333,0.343737,0.911288,-210.07,65.23,-135.42
33,3259,0.088165,0.366494,0.906141,109.93,-112.77,264.58
34,3359,0.086982,0.386991,0.899606,-219.07,54.23,-126.42
35,3469,0.081600,0.402491,0.896798,-19.08,-20.78,78.57
36,3569,0.081676,0.418064,0.891243,7.93,-40.77,101.58
37,3669,0.078574,0.429983,0.887932,-151.07,68.23,-127.42
38,3769,0.075497,0.440188,0.884586,79.93,-55.77,139.58
39,3879,0.075719,0.450455,0.881119,-92.08,35.22,-66.43
40,3979,0.072411,0.456911,0.879582,-37.08,12.22,-15.43
41,4079,0.072859,0.463882,0.876701,59.93,-38.77,107.58
42,4189,0.071866,0.469277,0.875370,-101.06,50.24,-107.41
43,4289,0.070216,0.473752,0.873963,60.93,-32.77,77.58
44,4389,0.071158,0.478234,0.871870,-19.07,8.23,-10.42
45,4489,0.069505,0.481146,0.871428,-59.07,33.23,-56.42
46,4589,0.069748,0.484464,0.870393,45.94,-40.76,85.59
47,4699,0.069350,0.486808,0.869532,-77.07,32.23,-68.42
48,4799,0.068188,0.488489,0.869349,32.95,-23.75,51.60
49,4899,0.068958,0.490522,0.868369,6.93,0.23,8.58
50,4999,0.068221,0.491756,0.868269,-41.06,30.24,-55.41
1,0,0.013635,-0.000188,1.000260,3.93,-3.77,-18.42
2,99,0.025096,-0.000183,1.000573,1.93,-1.77,8.58
3,199,0.035534,-0.000856,1.001040,2.93,-4.77,0.58
4,299,0.044607,-0.001685,1.001858,-3.08,12.22,-1.43
5,399,0.051258,-0.002005,1.002077,-0.06,9.24,-0.41
6,499,0.022377,-0.017145,0.983935,-2966.07,-1970.77,203.58
7,599,0.040694,-0.046896,0.948702,-2617.07,1233.23,1284.58
8,699,0.057544,-0.054533,0.997563,16864.93,2767.23,-373.42
9,799,0.121214,-0.016787,0.894496,-4125.07,6532.23,-2258.42
10,899,0.112034,0.016122,0.935026,-2779.06,-69.76,763.59
11,999,0.107838,0.033327,0.938477,29.93,-43.77,71.58
12,1109,0.102203,0.047586,0.940898,69.93,21.23,-39.42
13,1209,0.095746,0.061024,0.952843,-2.07,1.23,-7.42
14,1309,0.092163,0.071568,0.957229,-10.07,-11.77,20.58
15,1419,0.089831,0.080493,0.961011,-8.07,5.23,-8.42
16,1519,0.100629,0.073871,0.989239,11577.94,967.24,-79.41
17,1619,0.035577,0.138536,0.956213,17937.92,1044.22,-963.43
18,1719,0.013791,0.210182,0.892601,4903.93,-1304.77,1539.58
19,1829,0.033010,0.248175,0.904173,-1161.08,339.22,-616.43
20,1929,0.032045,0.282813,0.901999,-344.04,-78.74,195.61
21,2029,0.039371,0.318444,0.890995,85.93,-153.77,329.58
22,2139,0.041571,0.346570,0.885303,-355.05,117.25,-254.40
23,2239,0.041793,0.369507,0.880612,131.94,-91.76,211.59
24,2339,0.047749,0.391713,0.874245,-15.06,11.24,-15.41
25,2439,0.047208,0.407475,0.872018,-103.06,69.24,-133.41
26,2539,0.049698,0.422228,0.869595,185.95,-80.75,171.60
27,2649,0.052874,0.434695,0.868084,-124.08,73.22,-161.43
28,2749,0.052572,0.443973,0.867605,66.94,-16.76,50.59
29,2849,0.056325,0.453489,0.866045,66.93,-17.77,47.58
30,2949,0.056732,0.459948,0.865927,-101.06,50.24,-110.41
31,3049,0.058122,0.465384,0.866120,94.94,-54.76,125.59
32,3159,0.060548,0.471413,0.865698,-56.08,47.22,-99.43
33,3259,0.059644,0.475000,0.866822,12.93,7.23,-15.42
34,3359,0.061750,0.479185,0.865434,52.94,-32.76,54.59
35,3469,0.062113,0.482156,0.865921,-78.07,42.23,-81.42
36,3569,0.062494,0.484315,0.865675,77.95,-28.75,84.60
37,3669,0.064155,0.487140,0.864789,-32.05,29.25,-41.40
38,3769,0.063681,0.488698,0.865812,-1.06,18.24,-15.41
39,3869,0.064486,0.490663,0.866224,65.94,-22.76,53.59
40,3979,0.064383,0.491784,0.866079,-35.07,34.23,-78.42
41,4079,0.063911,0.492536,0.865791,41.93,-17.77,46.58
42,4189,0.065139,0.494200,0.865602,-30.06,14.24,-6.41
43,4289,0.064554,0.494570,0.865807,-84.07,13.23,-38.42
44,4389,0.064715,0.495307,0.865157,-12.05,-29.75,93.60
45,4489,0.065549,0.495823,0.864587,-133.06,23.24,-60.41
46,4589,0.064609,0.495950,0.864633,-46.06,-21.76,36.59
47,4699,0.066172,0.497011,0.864562,-46.08,-4.78,17.57
48,4799,0.064955,0.496905,0.865161,-76.05,19.25,-47.40
49,4899,0.065185,0.497694,0.864865,36.93,-25.77,76.58
50,4999,0.065965,0.498914,0.863990,-45.08,26.22,-41.43
1,0,0.012390,0.000087,1.000956,-13.06,-5.76,2.59
2,99,0.022830,-0.001030,1.000633,-1.06,-15.76,17.59
3,199,0.031740,-0.001338,1.000927,-7.06,1.24,-5.41
4,299,0.040888,-0.001179,0.999949,-14.07,13.23,-3.42
5,399,0.049049,-0.000988,1.001279,2.94,5.24,13.59
6,499,0.055656,-0.001797,1.001146,9.93,4.23,19.58
7,599,0.060448,-0.001624,1.000904,3.93,6.23,12.58
8,699,0.063642,-0.001843,1.001267,8.93,-1.77,28.58
9,799,0.066998,-0.002615,1.000989,-0.07,3.23,11.58
10,899,0.069412,-0.002795,1.001101,1.95,5.25,-19.40
11,999,0.070785,-0.002161,1.001324,-14.07,-8.77,-12.42
12,1109,0.073161,-0.002391,1.000836,-4.06,3.24,10.59
13,1209,0.074467,-0.003044,1.000623,-1.05,0.25,-0.40
14,1309,0.055289,-0.008470,0.977938,-1649.07,-607.77,37.58
15,1419,0.054662,-0.032125,0.933754,-3143.05,1547.25,1094.60
16,1519,0.075972,-0.050346,0.985864,16748.93,2887.23,-171.42
17,1619,0.212592,0.047875,0.849506,-2270.06,3734.24,-1927.41
18,1719,0.176998,0.075388,0.884535,-2982.07,-58.77,953.58
19,1829,0.167526,0.082586,0.895944,-83.07,-35.77,35.58
20,1929,0.156141,0.090079,0.913973,89.93,18.23,-20.42
21,2029,0.143059,0.096814,0.928328,-40.06,15.24,-14.41
22,2139,0.133367,0.102062,0.937672,-18.06,-7.76,7.59
23,2239,0.125422,0.106432,0.945744,13.93,-1.77,6.58
24,2339,0.137987,0.096084,0.958793,11670.94,1529.24,-426.41
25,2439,0.142679,0.124293,0.938666,17037.94,992.24,-592.41
26,2539,0.114972,0.195549,0.880890,4274.93,-1654.77,1853.58
27,2649,0.115939,0.235884,0.898376,-1099.06,377.24,-715.41
28,2749,0.102203,0.271578,0.898297,-415.08,-55.78,214.57
29,2849,0.098914,0.308839,0.888416,80.93,-190.77,380.58
30,2949,0.092731,0.338863,0.881537,-295.07,116.23,-268.42
31,3059,0.085278,0.363010,0.878015,97.92,-90.78,215.57
32,3159,0.084986,0.385934,0.872512,-18.07,-2.77,1.58
33,3259,0.079042,0.402856,0.870747,-122.08,61.22,-149.43
34,3359,0.077360,0.417954,0.868239,175.95,-77.75,183.60
35,3469,0.076150,0.431116,0.866144,-149.07,72.23,-155.42
36,3569,0.072759,0.440840,0.865737,59.93,-27.77,64.58
37,3669,0.073356,0.450624,0.864109,51.94,-29.76,48.59
38,3769,0.071300,0.457531,0.864648,-99.08,55.22,-126.43
39,3879,0.070119,0.463915,0.864538,108.93,-51.77,123.58
40,3979,0.070435,0.470000,0.863657,-71.07,44.23,-94.42
41,4079,0.067864,0.473836,0.864337,27.92,7.22,16.57
42,4189,0.068572,0.478799,0.863706,40.93,-13.77,37.58
43,4289,0.067636,0.482212,0.863683,-56.08,55.22,-88.43
44,4389,0.066841,0.484729,0.863260,88.94,-29.76,64.59
45,4489,0.067575,0.488004,0.862773,-21.07,19.23,-53.42
46,4589,0.066404,0.489157,0.863219,4.93,8.23,-20.42
47,4699,0.066782,0.491694,0.862829,46.92,-19.78,40.57
48,4799,0.066609,0.493228,0.863560,-48.08,40.22,-61.43
49,4899,0.066132,0.493781,0.863979,50.92,-26.78,50.57
50,4999,0.066697,0.494965,0.863585,-25.09,13.21,-28.44
1,0,0.011876,0.000141,0.999125,2.91,2.21,15.56
2,99,0.022429,-0.000050,1.000120,-6.08,3.22,2.57
3,199,0.030868,-0.000341,1.001223,-28.09,2.21,6.56
4,299,0.038242,-0.000386,1.001024,-1.08,-4.78,-4.43
5,399,0.044474,-0.000498,1.002229,-14.08,9.22,7.57
6,499,0.048324,-0.000465,1.001038,2.92,-0.78,-15.43
7,599,0.014830,-0.008732,0.959999,-2024.07,-622.77,-10.42
8,699,0.040961,-0.024291,0.930517,-3596.09,2086.21,1439.56
9,799,0.075368,-0.050645,0.955042,16627.92,2350.22,831.57
10,899,0.104211,-0.028845,0.844767,-137.08,-217.78,-2232.43
11,999,0.083207,0.025794,0.811237,-2418.10,12.20,679.55
12,1109,0.075680,0.043233,0.835435,110.90,-9.80,37.55
13,1209,0.076150,0.057342,0.865360,-18.09,-31.79,58.56
14,1309,0.079039,0.068035,0.882539,-16.09,0.21,19.56
15,1419,0.077815,0.077545,0.898660,-2.07,14.23,-13.42
16,1519,0.076883,0.085757,0.913700,0.91,-8.79,18.56
17,1619,0.079571,0.061133,0.998261,10667.92,519.22,41.57
18,1719,0.085957,0.067265,0.986441,17964.92,2053.22,-259.43
19,1829,0.068076,0.144969,0.921461,4467.92,-1559.78,1688.57
20,1929,0.076132,0.199885,0.922461,-1583.09,135.21,-454.44
21,2029,0.067964,0.244842,0.912013,-707.10,119.20,-219.45
22,2139,0.069188,0.284099,0.903773,-837.09,426.21,-687.44
23,2239,0.060542,0.310528,0.903031,-622.09,282.21,-560.44
24,2339,0.055994,0.334531,0.899544,307.92,-158.78,400.57
25,2439,0.058775,0.358632,0.893229,-79.09,43.21,-94.44
26,2539,0.053028,0.374961,0.892512,-104.09,42.21,-114.44
27,2649,0.054423,0.391386,0.888333,147.92,-76.78,165.57
28,2749,0.052497,0.403901,0.887197,-190.09,95.21,-211.44
29,2849,0.050383,0.414594,0.885920,159.91,-73.79,165.56
30,2949,0.052211,0.425458,0.883077,-77.10,42.20,-90.45
31,3049,0.049132,0.432185,0.883334,-17.10,10.20,-0.45
32,3159,0.050911,0.440539,0.881135,45.91,-13.79,25.56
33,3259,0.048559,0.445864,0.880401,-67.08,43.22,-114.43
34,3359,0.048170,0.451214,0.878826,148.90,-40.80,106.55
35,3469,0.047419,0.455890,0.877358,-74.09,59.21,-123.44
36,3569,0.045554,0.459535,0.876623,80.90,-14.80,35.55
37,3669,0.046697,0.463329,0.875742,60.92,5.22,-15.43
38,3769,0.044904,0.465290,0.875287,2.90,32.20,-50.45
39,3869,0.045796,0.467379,0.874295,111.92,-27.78,64.57
40,3979,0.044907,0.469044,0.874038,-36.08,32.22,-79.43
41,4079,0.044518,0.470643,0.873582,73.92,-24.78,56.57
42,4189,0.045377,0.472020,0.873633,-64.08,34.22,-57.43
43,4289,0.044587,0.472421,0.874245,27.91,-14.79,40.56
44,4389,0.045930,0.473953,0.874197,-7.09,10.21,-8.44
45,4489,0.045350,0.474101,0.875035,-31.09,33.21,-42.44
46,4589,0.046157,0.474465,0.875582,48.90,-30.80,44.55
47,4699,0.045818,0.474609,0.876139,-38.10,30.20,-63.45
48,4799,0.045602,0.475043,0.875917,85.89,-11.81,32.54
49,4899,0.046683,0.476291,0.875050,-9.08,36.22,-77.43
50,4999,0.047181,0.475979,0.877097,149.91,-36.79,62.56
1,0,0.011968,0.001057,0.999143,-8.10,-5.80,-26.45
2,99,0.022763,0.001644,0.999952,-8.09,1.21,-5.44
3,199,0.031572,0.002765,1.000549,-7.10,13.20,12.55
4,299,0.038932,0.003278,1.000671,6.89,-0.81,34.54
5,399,0.045005,0.002616,1.000812,5.90,3.20,40.55
6,499,0.050825,0.001120,1.000547,-1.10,-11.80,36.55
7,599,0.055957,-0.000006,1.000743,-3.09,-2.79,-5.44
8,699,0.059952,-0.000322,1.000965,-9.11,9.19,-21.46
9,799,0.062743,0.000032,1.001190,2.91,-6.79,0.56
10,899,0.064860,0.000004,1.001381,-0.11,-7.81,14.54
11,999,0.067519,-0.000003,1.001451,-11.12,-5.82,21.53
12,1109,0.070640,-0.001107,1.001438,-2.11,10.19,3.54
13,1209,0.072542,-0.001185,1.001354,-3.11,5.19,-0.46
14,1309,0.073903,-0.001507,1.000678,-1.10,3.20,-5.45
15,1409,0.075682,-0.001579,1.000854,-13.10,-11.80,-8.45
16,1509,0.077139,-0.001348,1.001242,0.90,7.20,-12.45
17,1619,0.077829,-0.000986,1.001297,-0.10,2.20,1.55
18,1719,0.078525,-0.001155,1.001418,-4.10,-0.80,13.55
19,1819,0.078695,-0.001336,1.001226,-11.11,-4.81,17.54
20,1919,0.079481,-0.002185,1.001375,-9.10,-6.80,9.55
21,2019,0.081778,-0.002467,1.001575,-1.10,2.20,-20.45
22,2129,0.055368,-0.012264,0.983691,-944.10,-646.80,-77.45
23,2229,0.078568,-0.019366,0.915700,-2668.10,120.20,542.55
24,2329,0.104568,-0.059533,0.927708,15520.91,966.21,419.56
25,2439,0.109859,-0.050077,0.852789,74.91,2126.21,-2207.44
26,2539,0.098280,0.000404,0.854586,-2609.10,30.20,1156.55
27,2639,0.089628,0.017678,0.876365,97.91,-22.79,42.56
28,2739,0.087803,0.036719,0.899161,-63.11,-24.81,78.54
29,2849,0.087058,0.051750,0.915792,-25.09,11.21,-32.44
30,2949,0.083916,0.064270,0.926815,5.89,6.19,1.54
31,3049,0.081978,0.074344,0.938089,-9.10,-4.80,14.55
32,3159,0.083589,0.037095,1.086008,7780.89,129.19,81.54
33,3259,0.092833,0.047529,1.069906,17064.91,1597.21,-353.44
34,3359,0.068262,0.128962,0.978491,7381.90,-1090.80,969.55
35,3459,0.082808,0.181646,0.963117,-1547.09,-94.79,-173.44
36,3559,0.070031,0.228680,0.942011,-292.10,113.20,-237.45
37,3669,0.069864,0.272888,0.924035,308.90,-170.80,344.55
38,3769,0.070162,0.308835,0.911409,-149.11,128.19,-270.46
39,3869,0.066002,0.336149,0.904193,128.90,-20.80,46.55
40,3969,0.069021,0.362277,0.896705,175.89,-33.81,83.54
41,4079,0.066717,0.382454,0.892097,-85.10,81.20,-195.45
42,4179,0.065948,0.400190,0.887650,215.89,-62.81,162.54
43,4279,0.067602,0.415925,0.882735,-32.11,46.19,-107.46
44,4379,0.065181,0.427872,0.881230,9.90,20.20,-32.45
45,4489,0.067188,0.439399,0.877442,91.89,-33.81,99.54
46,4589,0.066697,0.448429,0.876036,-99.10,66.20,-130.45
47,4689,0.065216,0.455921,0.874620,86.87,-31.83,71.52
48,4789,0.066943,0.463387,0.871897,-22.11,17.19,-41.46
49,4899,0.065005,0.468452,0.871011,-71.11,8.19,-18.46
50,4999,0.065940,0.473582,0.869781,13.90,-44.80,107.55
1,0,0.013597,0.000946,0.999179,0.89,-1.81,-2.46
2,99,0.025685,0.000726,0.999855,-6.10,5.20,-2.45
3,199,0.033378,0.000941,1.000008,-5.12,9.18,0.53
4,299,0.041694,0.000537,0.999790,3.89,-1.81,15.54
5,399,0.050428,0.000799,1.000722,-5.11,-3.81,4.54
6,499,0.055984,0.000875,1.001295,-8.12,5.18,-10.47
7,599,0.060103,0.000683,1.001617,-8.10,6.20,-2.45
8,699,0.064025,0.000758,1.001542,-13.11,2.19,0.54
9,799,0.067011,0.000565,1.001405,-6.11,-1.81,-8.46
10,899,0.070245,0.000585,1.001930,-10.12,-16.82,12.53
11,999,0.073158,0.000931,1.001571,-6.11,-0.81,7.54
12,1109,0.075562,0.000877,1.000826,-0.11,-2.81,2.54
13,1209,0.077421,0.000923,1.001236,0.89,6.19,6.54
14,1309,0.079423,0.001731,1.000669,-4.11,0.19,-0.46
15,1409,0.080832,0.001777,1.000682,0.88,4.18,12.53
16,1509,0.082707,0.001724,1.001205,-8.11,3.19,6.54
17,1619,0.083018,0.001844,1.000918,-9.11,11.19,-8.46
18,1719,0.083595,0.001379,1.000967,3.88,-1.82,14.53
19,1819,0.084689,0.001661,1.000825,-1.11,-2.81,-4.46
20,1919,0.093877,-0.004197,0.935098,-6940.12,1132.18,257.53
21,2019,0.073781,-0.081979,0.996380,256.88,-714.82,68.53
22,2129,0.064390,-0.061137,1.050613,17478.88,2161.17,1194.52
23,2229,0.072832,-0.111573,1.174439,-8449.12,-1795.82,1151.53
24,2329,0.076218,-0.051868,1.137748,1452.88,167.18,302.53
25,2439,0.074189,-0.026497,1.118334,-101.11,23.19,-45.46
26,2539,0.071677,-0.003943,1.093702,43.89,-0.81,20.54
27,2639,0.072252,0.016271,1.079760,2.88,-1.82,32.53
28,2739,0.075230,0.032666,1.066078,5.89,-12.81,4.54
29,2849,0.075034,0.048763,1.058257,21.89,-9.81,-17.46
30,2949,0.081770,0.054846,1.076859,14534.89,806.19,-728.46
31,3049,0.058309,0.126301,0.984255,13059.90,-15.80,-328.45
32,3159,0.092603,0.195900,0.943077,-1440.12,1167.18,1615.53
33,3259,0.082019,0.241656,0.927797,-162.11,472.19,-1097.46
34,3359,0.076629,0.274451,0.927095,189.89,-14.81,40.54
35,3459,0.079299,0.307490,0.920950,163.88,-105.82,212.53
36,3559,0.077467,0.334548,0.916551,-276.12,95.18,-206.47
37,3669,0.074372,0.357126,0.912757,97.89,-84.81,190.54
38,3769,0.075806,0.378112,0.906785,-109.10,17.20,-35.45
39,3869,0.071751,0.393991,0.903174,-140.11,35.19,-61.46
40,3969,0.071033,0.409173,0.898054,54.89,-74.81,160.54
41,4069,0.070239,0.422590,0.893299,-164.12,57.18,-123.47
42,4179,0.067129,0.432383,0.890832,24.89,-49.81,92.54
43,4279,0.067562,0.442977,0.887197,-44.12,-1.82,18.53
44,4379,0.064817,0.450005,0.884950,-104.12,33.18,-63.47
45,4489,0.064864,0.456949,0.882307,52.89,-48.81,115.54
46,4589,0.064447,0.462577,0.880042,-109.11,38.19,-80.46
47,4689,0.062151,0.467343,0.878612,13.89,-14.81,60.54
48,4789,0.062928,0.471851,0.876169,-4.11,1.19,20.54
49,4889,0.061940,0.475189,0.875008,-57.12,30.18,-62.47
50,4999,0.061467,0.478117,0.873454,50.89,-30.81,81.54
1,0,0.012608,0.000635,0.999088,0.90,-3.80,40.55
2,99,0.024075,0.000406,0.999557,-1.13,15.17,-39.48
3,199,0.031021,-0.000631,0.999920,-0.13,3.17,8.52
4,299,0.039067,-0.000927,0.999917,-3.12,-2.82,-1.47
5,399,0.045028,-0.001489,1.000152,-10.11,2.19,12.54
6,499,0.051083,-0.001730,1.000535,-0.12,4.18,-0.47
7,599,0.055295,-0.002319,1.001099,-4.14,-6.84,1.51
8,699,0.059022,-0.002160,1.000900,-6.13,-5.83,9.52
9,799,0.062520,-0.002227,1.000805,-3.14,9.16,-8.49
10,899,0.064907,-0.002247,1.000486,-7.14,-4.84,13.51
11,999,0.067889,-0.001641,1.000123,-2.11,-3.81,-5.46
12,1109,0.069764,-0.001565,1.000236,-3.13,2.17,15.52
13,1209,0.071265,-0.001758,1.000277,-6.14,2.16,2.51
14,1309,0.072872,-0.001555,1.000092,-6.12,-0.82,4.53
15,1419,0.073670,-0.001731,1.000520,-2.13,10.17,-7.48
16,1519,0.074641,-0.002045,1.000812,-5.13,13.17,7.52
17,1619,0.075888,-0.002549,1.000199,-11.11,5.19,-2.46
18,1719,0.075831,-0.002557,1.000941,-10.11,6.19,-17.46
19,1819,0.076387,-0.002600,1.000767,-6.12,-0.82,-1.47
20,1929,0.076493,-0.002729,1.001149,-6.11,7.19,-2.46
21,2029,0.077297,-0.002710,1.001255,-5.13,-2.83,16.52
22,2139,0.078036,-0.002712,1.001363,-6.12,8.18,8.53
23,2239,0.078114,-0.002787,1.001344,-7.13,-14.83,0.52
24,2339,0.083197,-0.007154,0.978697,-892.13,-12.83,-14.48
25,2439,0.102826,-0.025899,0.942180,-3908.12,591.18,608.53
26,2539,0.122624,-0.057451,0.946297,16058.88,1817.18,489.53
27,2649,0.180064,-0.004967,0.859580,-697.13,-73.83,-2060.48
28,2749,0.165003,0.044295,0.898774,-2727.12,-12.82,850.53
29,2849,0.148118,0.058281,0.906270,59.88,9.18,17.53
30,2949,0.138489,0.070150,0.925002,-14.13,-7.83,37.52
31,3049,0.131642,0.079141,0.934753,-23.12,-11.82,-0.47
32,3159,0.122086,0.086875,0.942218,4.88,6.18,-5.47
33,3259,0.114330,0.093521,0.950742,-2.13,-2.83,13.52
34,3359,0.106492,0.054072,1.071989,9424.88,314.17,144.52
35,3469,0.114351,0.062856,1.043029,18099.88,1934.19,-965.46
36,3569,0.084647,0.144443,0.967273,5311.87,-1484.83,1423.52
37,3669,0.091954,0.193980,0.967552,-2278.13,37.17,-207.48
38,3769,0.075663,0.242770,0.942283,-418.13,56.17,-122.48
39,3879,0.073130,0.284755,0.923093,295.87,-166.83,366.52
40,3979,0.072278,0.319910,0.909510,-89.12,98.18,-225.47
41,4079,0.066958,0.345966,0.902085,127.88,4.18,-14.47
42,4189,0.067837,0.371079,0.893155,137.87,-29.83,72.52
43,4289,0.066186,0.390301,0.887725,-70.12,93.18,-183.47
44,4389,0.064764,0.406128,0.884281,190.87,-56.83,126.52
45,4489,0.066229,0.420953,0.880896,11.87,24.17,-48.48
46,4589,0.064105,0.432365,0.879722,-11.13,23.17,-56.48
47,4699,0.065650,0.442687,0.876874,121.87,-42.83,98.52
48,4799,0.065975,0.451077,0.874893,-53.11,55.19,-104.46
49,4899,0.064823,0.457366,0.874565,81.88,-23.82,60.53
50,4999,0.066535,0.464231,0.872710,6.87,-1.83,1.52
1,0,0.013908,0.000159,0.999472,1.88,-0.82,1.53
2,99,0.024905,-0.000640,1.000873,-2.13,9.17,-6.48
3,199,0.032806,-0.001063,1.000946,0.86,19.16,-19.49
4,299,0.037709,-0.001312,1.001009,-9.13,9.17,17.52
5,399,0.046034,-0.001250,1.000311,-6.13,-7.83,17.52
6,499,0.051681,-0.001819,1.000945,-4.12,7.18,-2.47
7,599,0.056958,-0.001644,1.001154,1.87,3.17,5.52
8,699,0.061186,-0.001806,1.001112,-10.12,0.18,-0.47
9,799,0.064543,-0.002090,1.001736,5.88,-1.82,3.53
10,899,0.067249,-0.002039,1.001570,-5.14,-1.84,6.51
11,999,0.069696,-0.002509,1.001081,0.86,0.16,-0.49
12,1109,0.072398,-0.002083,1.000830,-9.13,6.17,0.52
13,1209,0.074036,-0.001667,1.001277,-9.12,13.18,15.53
14,1309,0.076051,-0.001679,1.001326,-5.13,2.17,-5.48
15,1409,0.077086,-0.001873,1.001075,-0.14,-1.84,4.51
16,1509,0.078423,-0.001781,1.001137,5.87,-1.83,-12.48
17,1619,0.077857,-0.002179,1.001281,-14.13,2.17,9.52
18,1719,0.061043,-0.010629,0.984209,-2339.14,-1607.84,142.51
19,1819,0.083720,-0.025172,0.922714,-4342.12,1929.18,1948.53
20,1919,0.080401,-0.039676,0.962874,18464.88,1951.18,248.53
21,2019,0.054618,-0.019632,0.878633,-252.12,4161.18,-1519.47
22,2129,0.044165,0.001984,0.952560,-2612.13,-91.83,785.52
23,2229,0.051539,0.021474,0.954296,-68.13,-11.83,36.52
24,2329,0.057532,0.036063,0.956760,17.87,9.17,-14.48
25,2439,0.058233,0.050313,0.962205,-18.11,0.19,2.54
26,2539,0.061318,0.061931,0.967127,-22.14,-5.84,16.51
27,2639,0.064562,0.072282,0.970669,-4.15,-3.85,9.50
28,2739,0.071294,0.053323,1.031505,11154.88,527.17,-96.48
29,2839,0.083095,0.062731,1.008764,17877.87,1981.17,-349.48
30,2949,0.059526,0.146059,0.941846,3974.88,-1355.82,1693.53
31,3049,0.072140,0.198192,0.940593,-1404.13,166.17,-496.48
32,3159,0.065046,0.240326,0.933119,-451.13,-11.83,86.52
33,3259,0.068739,0.282549,0.920266,-87.13,-83.83,208.52
34,3359,0.065835,0.315453,0.910421,-321.13,134.17,-268.48
35,3459,0.065729,0.346389,0.900644,-429.13,72.17,-28.48
36,3559,0.061629,0.368088,0.893705,-407.13,259.17,-360.48
37,3669,0.057851,0.385323,0.890005,57.87,1.17,31.52
38,3769,0.058980,0.402134,0.885139,93.88,-25.82,70.53
39,3869,0.057210,0.414574,0.882871,-101.14,65.16,-150.49
40,3969,0.056292,0.425368,0.881784,114.86,-46.84,121.51
41,4069,0.057709,0.435202,0.879488,-18.13,28.17,-51.48
42,4179,0.055837,0.442370,0.879367,22.88,1.18,3.53
43,4279,0.056462,0.449800,0.877946,69.87,-18.83,48.52
44,4379,0.055895,0.455383,0.877617,-83.13,47.17,-89.48
45,4489,0.055742,0.459891,0.876715,65.87,-42.83,100.52
46,4589,0.056966,0.464033,0.875985,-46.14,34.16,-41.49
47,4689,0.055609,0.467097,0.876829,-4.13,10.17,6.52
48,4789,0.056304,0.470122,0.875916,28.86,-15.84,36.51
49,4889,0.055723,0.472455,0.875471,-61.14,35.16,-68.49
50,4999,0.055724,0.474731,0.875421,51.86,-27.84,56.51
1,0,0.013248,-0.000958,1.001065,-0.14,15.16,-0.49
2,99,0.024344,-0.000931,1.000707,-16.13,6.17,-27.48
3,199,0.032916,-0.000486,1.001684,2.87,18.17,-17.48
4,299,0.038718,0.000735,1.001544,-3.14,3.16,5.51
5,399,0.045352,0.001314,1.001059,-7.14,-14.84,20.51
6,499,0.052072,0.000799,1.001050,-13.13,1.17,10.52
7,599,0.057674,0.000142,1.001042,-0.14,11.16,-3.49
8,699,0.060476,0.000407,1.000742,0.85,13.15,-1.50
9,799,0.063518,0.000432,1.000871,5.86,-11.84,24.51
10,899,0.066322,0.000031,1.000908,-7.14,-3.84,10.51
11,999,0.068762,-0.000492,1.000665,-9.13,13.17,-3.48
12,1109,0.069626,-0.000205,1.000788,-1.16,-10.86,21.49
13,1209,0.073199,-0.000583,1.000636,-17.13,-15.83,15.52
14,1309,0.085776,-0.037654,1.020850,-5459.13,139.17,826.52
15,1419,0.064112,-0.081671,1.005952,11424.86,698.16,-574.49
16,1519,0.184693,0.232121,0.969375,6560.86,-11578.84,-725.49
17,1619,0.169779,0.257300,0.969888,4456.85,337.15,-69.50
18,1719,0.159739,0.239006,0.990191,-402.13,2.17,34.52
19,1829,0.148276,0.223510,0.996353,-65.13,16.17,-52.48
20,1929,0.134888,0.208233,0.994010,-26.14,0.16,-4.49
21,2029,0.125303,0.196657,0.994344,0.87,-4.83,-3.48
22,2139,0.119316,0.186873,0.995342,-0.14,-5.84,8.51
23,2239,0.117047,0.154533,1.072105,995.86,-3.84,-120.49
24,2339,0.113470,0.146563,1.071967,16039.86,1650.16,-336.49
25,2439,0.083477,0.208087,0.976196,10261.86,-247.84,277.51
26,2539,0.118591,0.264484,0.944137,-1454.13,848.17,1213.52
27,2649,0.098743,0.298926,0.926976,-506.14,377.16,-694.49
28,2749,0.088995,0.327341,0.917370,472.86,-98.84,229.51
29,2849,0.088967,0.353948,0.908875,169.87,-16.83,13.52
30,2949,0.083779,0.373341,0.905390,-95.15,103.15,-210.50
31,3059,0.081256,0.390924,0.900267,253.86,-74.84,202.51
32,3159,0.080558,0.406895,0.895656,-81.14,79.16,-173.49
33,3259,0.075808,0.418254,0.894043,53.86,-6.84,21.51
34,3359,0.076201,0.429905,0.890457,86.85,-26.85,78.50
35,3469,0.073131,0.438857,0.888673,-66.13,64.17,-142.48
36,3569,0.071216,0.446832,0.886423,136.88,-54.82,127.53
37,3669,0.071420,0.454380,0.884493,-35.14,29.16,-61.49
38,3769,0.069030,0.459240,0.883420,3.87,22.17,-24.48
39,3869,0.068719,0.464926,0.881867,79.86,-30.84,82.51
40,3979,0.067631,0.468845,0.880108,-60.13,41.17,-84.48
41,4079,0.066157,0.472212,0.878978,72.87,-22.83,67.52
42,4189,0.053039,0.484486,0.873258,-56.14,-196.84,457.51
43,4289,0.058075,0.496346,0.857042,145.87,-33.83,-34.48
44,4389,0.053933,0.496431,0.856516,-147.13,256.17,-582.48
45,4489,0.053158,0.494616,0.861251,374.87,-81.83,189.52
46,4589,0.059697,0.495326,0.862584,80.87,24.17,-43.48
47,4699,0.057545,0.493439,0.865859,-11.14,66.16,-121.49
48,4799,0.058042,0.492458,0.867343,641.87,-340.83,698.52
49,4899,0.061265,0.490580,0.864540,-487.15,183.15,-452.50
50,4999,0.090884,0.490925,0.853514,382.86,54.16,256.51
1,0,0.014548,-0.000061,1.000589,5.86,2.16,-6.49
2,99,0.024094,-0.000498,1.001291,1.85,-3.85,-4.50
3,199,0.035558,-0.000301,1.001210,1.86,-0.84,25.51
4,299,0.044865,0.000250,1.000921,-6.13,-2.83,-15.48
5,399,0.050852,0.000372,1.001244,-8.13,5.17,6.52
6,499,0.057406,0.001408,1.001078,6.85,-4.85,10.50
7,599,0.062025,0.001630,1.001212,-0.14,-2.84,-3.49
8,699,0.066261,0.002203,1.001582,-4.17,0.13,5.48
9,799,0.070266,0.002104,1.001952,-4.14,12.16,-0.49
10,899,0.072717,0.001782,1.001680,-6.14,7.16,-0.49
11,999,0.074801,0.001710,1.002383,-4.16,2.14,-3.51
12,1109,0.076407,0.001630,1.002212,-6.15,0.15,-3.50
13,1209,0.078340,0.001855,1.002102,-5.15,5.15,6.50
14,1309,0.080313,0.001717,1.002339,-4.16,0.14,-4.51
15,1409,0.080909,0.002332,1.002504,-13.15,1.15,-9.50
16,1509,0.083120,0.002214,1.001637,-6.14,5.16,16.51
17,1619,0.081995,0.003084,1.001577,-12.15,10.15,-7.50
18,1719,0.075033,-0.006028,0.949067,-6261.15,-2203.85,449.50
19,1819,0.064905,-0.083133,1.018837,-1843.14,1822.16,976.51
20,1919,0.074991,-0.068307,1.068932,20641.87,4070.17,8.52
21,2019,0.071203,-0.048015,0.975373,-10986.16,-2599.86,-654.51
22,2129,0.070603,-0.014891,1.065881,-1579.14,62.16,830.51
23,2229,0.074578,0.007185,1.054829,-62.16,0.14,20.49
24,2329,0.075211,0.024649,1.042232,20.85,19.15,-28.50
25,2439,0.074687,0.040300,1.033043,9.86,15.16,1.51
26,2539,0.075377,0.053969,1.028236,-3.15,-3.85,5.50
27,2639,0.075725,0.065258,1.022374,-7.15,9.15,0.50
28,2739,0.083510,0.065424,1.048226,12818.85,529.15,-596.50
29,2839,0.055941,0.118244,0.982804,15768.85,1148.15,-684.50
30,2949,0.060578,0.209266,0.920988,113.83,991.13,1820.48
31,3049,0.062670,0.250159,0.923412,-156.15,415.15,-867.50
32,3159,0.062763,0.283033,0.923954,301.85,-138.85,298.50
33,3259,0.069380,0.315425,0.917511,-59.15,-28.85,62.50
34,3359,0.067185,0.340249,0.913224,-309.14,91.16,-196.49
35,3459,0.067444,0.363381,0.906889,125.84,-134.86,286.49
36,3559,0.069293,0.385003,0.900259,-211.14,65.16,-137.49
37,3669,0.065976,0.400653,0.896107,-38.15,-16.85,57.50
38,3769,0.068357,0.416409,0.890637,25.85,-44.85,129.50
39,3869,0.066847,0.428557,0.886902,-187.16,83.14,-149.51
40,3969,0.065581,0.438571,0.883545,99.85,-73.85,153.50
41,4069,0.067783,0.448383,0.878695,-66.16,22.14,-60.51
42,4179,0.064894,0.455204,0.876935,-41.14,2.16,-5.49
43,4279,0.065753,0.462320,0.873828,66.85,-36.85,96.50
44,4379,0.065494,0.468057,0.872102,-99.14,52.16,-115.49
45,4489,0.063919,0.472293,0.870910,87.85,-36.85,100.50
46,4589,0.064795,0.476973,0.869475,-31.15,21.15,-34.50
47,4689,0.063508,0.479872,0.869519,-28.16,14.14,-25.51
48,4789,0.064794,0.483287,0.868568,66.84,-24.86,75.49
49,4889,0.064752,0.485348,0.867521,-68.16,39.14,-77.51
50,4999,0.064112,0.486972,0.867108,49.85,-27.85,48.50
1,0,0.012991,0.000634,1.000314,-11.15,9.15,-10.50
2,99,0.022862,0.001210,1.000709,-6.16,-3.86,-5.51
3,199,0.030556,0.001773,1.001631,-11.17,-5.87,21.48
4,299,0.039439,0.001189,1.001315,-6.16,-5.86,23.49
5,399,0.046826,0.000821,1.001377,-2.15,11.15,-4.50
6,499,0.051969,0.000746,1.001649,-4.17,17.13,-18.52
7,609,0.055077,0.000994,1.001148,1.84,5.14,4.49
8,709,0.059056,0.000600,1.001198,-1.15,-5.85,5.50
9,809,0.062933,0.000357,1.000911,-26.16,-4.86,-8.51
10,909,0.065257,0.000810,1.000686,1.83,8.13,-3.52
11,1009,0.067104,0.000443,1.001556,-4.17,3.13,17.48
12,1119,0.068986,-0.000307,1.001160,6.84,-4.86,25.49
13,1219,0.070475,-0.000634,1.001172,1.83,-0.87,-1.52
14,1319,0.071668,-0.000784,1.000999,-2.17,8.13,-5.52
15,1419,0.073121,-0.000361,1.001163,-1.16,-14.86,0.49
16,1519,0.074082,-0.000259,1.001156,-4.16,3.14,4.49
17,1629,0.074826,-0.000336,1.001388,-0.16,9.14,-7.51
18,1729,0.074999,-0.000641,1.002775,11.82,11.12,-5.53
19,1829,0.075825,-0.030434,1.005914,-4019.16,-617.86,23.49
20,1929,0.051386,-0.077640,0.999811,12055.84,311.14,-385.51
21,2029,0.226097,0.166489,0.805933,1874.84,-12065.86,-1362.51
22,2139,0.193931,0.211034,0.723278,1905.84,-257.86,27.49
23,2239,0.183527,0.198910,0.751496,91.84,55.14,-9.51
24,2339,0.165436,0.189410,0.795238,20.83,19.13,-35.52
25,2449,0.152878,0.180949,0.827675,10.81,-10.89,27.46
26,2549,0.143633,0.173429,0.851146,-12.17,4.13,-0.52
27,2649,0.133340,0.167367,0.872928,8.84,6.14,-10.51
28,2749,0.125488,0.112501,1.036040,4674.84,142.14,-6.51
29,2849,0.114877,0.112776,1.025364,16725.85,1427.14,-1027.51
30,2959,0.086210,0.185794,0.939109,6907.83,-1346.87,1032.48
31,3059,0.095113,0.232168,0.929294,-1904.16,62.14,-186.51
32,3169,0.078969,0.271475,0.915238,-395.16,38.14,-83.51
33,3269,0.076563,0.309007,0.901057,383.84,-170.86,371.49
34,3369,0.075652,0.339132,0.892519,-150.16,133.14,-282.51
35,3469,0.070264,0.361498,0.888996,121.83,-10.87,42.48
36,3569,0.072679,0.383658,0.884043,194.85,-59.85,120.50
37,3679,0.070172,0.400133,0.881664,-96.17,96.13,-208.52
38,3779,0.068829,0.414191,0.879715,199.84,-73.86,165.49
39,3879,0.070452,0.427879,0.877252,-44.16,38.14,-95.51
40,3979,0.067308,0.437317,0.877027,-31.17,33.13,-54.52
41,4079,0.068281,0.446933,0.874803,120.84,-56.86,142.49
42,4189,0.068301,0.454411,0.873901,-117.15,78.15,-139.50
43,4289,0.066763,0.460382,0.873886,84.84,-34.86,94.49
44,4389,0.068183,0.466428,0.872133,5.84,8.14,-10.51
45,4499,0.066369,0.470377,0.872621,-35.16,34.14,-62.51
46,4599,0.067097,0.474521,0.870966,86.84,-40.86,98.49
47,4699,0.067332,0.478171,0.869669,-76.17,48.13,-89.52
48,4799,0.065811,0.480853,0.869428,41.84,-23.86,39.49
49,4899,0.067007,0.484048,0.868454,19.83,-1.87,13.48
50,5009,0.066066,0.485336,0.867809,-54.14,34.16,-54.49
1,0,0.013211,-0.000830,1.001101,-10.16,36.14,-32.51
2,99,0.023396,0.000020,1.000792,9.84,31.14,-33.51
3,199,0.030497,0.001036,1.001427,4.83,12.13,16.48
4,299,0.038071,0.000526,1.000849,7.83,-12.87,50.48
5,399,0.046139,-0.001647,1.001091,-4.16,9.14,24.49
6,499,0.052630,-0.003293,1.001644,-2.17,0.13,-15.52
7,599,0.057250,-0.002989,1.001949,-6.17,12.13,-30.52
8,699,0.060408,-0.002236,1.001403,1.83,-3.87,-14.52
9,799,0.064356,-0.002310,1.001891,-7.17,-3.87,4.48
10,899,0.068682,-0.002758,1.002086,-15.17,0.13,3.48
11,999,0.070584,-0.002735,1.002050,-2.15,14.15,-12.50
12,1109,0.071174,-0.002350,1.000995,-10.16,-6.86,7.49
13,1209,0.073672,-0.002444,1.001452,-11.18,-10.88,16.47
14,1309,0.076985,-0.002743,1.001237,-9.17,1.13,-3.52
15,1419,0.076432,-0.002430,1.001219,-1.16,13.14,-14.51
16,1519,0.075248,-0.001376,1.001570,-9.17,-1.87,5.48
17,1619,0.075029,-0.000481,1.001520,-4.17,-17.87,15.48
18,1719,0.073287,-0.000379,0.993934,-63.16,-24.86,46.49
19,1819,0.069682,-0.036858,0.975712,-4361.16,-271.86,468.49
20,1929,0.084434,-0.076728,0.978094,15383.84,944.14,331.49
21,2029,0.112280,-0.058926,0.885728,-1428.16,-2345.86,-2166.51
22,2139,0.097352,-0.003970,0.892801,-2353.16,-136.86,636.49
23,2239,0.090063,0.015259,0.915841,64.83,-8.87,49.48
24,2339,0.088299,0.032904,0.927662,-79.17,-15.87,29.48
25,2439,0.088649,0.046254,0.935750,5.83,-1.87,2.48
26,2539,0.086658,0.058901,0.944603,-9.17,9.13,-9.52
27,2649,0.085039,0.069853,0.952604,-18.17,1.13,5.48
28,2749,0.086061,0.034612,1.093474,3489.83,96.13,-214.52
29,2849,0.087241,0.044465,1.083356,16623.83,1262.13,-512.52
30,2949,0.062170,0.122493,0.984081,9046.84,-798.86,683.49
31,3049,0.078580,0.187096,0.961423,-2094.16,530.14,674.49
32,3159,0.064440,0.233439,0.938483,-382.17,281.13,-525.52
33,3259,0.061209,0.272574,0.925411,560.83,-112.87,280.48
34,3359,0.065220,0.307578,0.915270,98.82,70.12,-135.53
35,3469,0.061323,0.333798,0.908902,58.83,49.13,-97.52
36,3569,0.063705,0.358612,0.901677,263.83,-74.87,181.48
37,3669,0.064686,0.378971,0.897550,-105.18,97.12,-226.53
38,3769,0.063177,0.394720,0.895214,123.83,-35.87,79.48
39,3879,0.066014,0.410908,0.890829,41.84,20.14,-4.51
40,3979,0.064103,0.422800,0.888091,-44.18,54.12,-99.53
41,4079,0.064146,0.433293,0.885672,152.83,-61.87,142.48
42,4189,0.064420,0.443091,0.882206,-96.17,57.13,-125.52
43,4289,0.062236,0.449954,0.881219,44.83,-15.87,51.48
44,4389,0.063694,0.457454,0.878568,27.82,-20.88,47.47
45,4489,0.062773,0.462694,0.877943,-87.17,50.13,-86.52
46,4589,0.062557,0.467184,0.876900,66.81,-36.89,82.46
47,4699,0.063564,0.471971,0.875555,-59.17,32.13,-74.52
48,4799,0.062058,0.475125,0.875475,13.83,1.13,7.48
49,4899,0.063524,0.478392,0.873923,61.82,-16.88,53.47
50,4999,0.063233,0.480418,0.872292,-67.16,57.14,-87.51
1,0,0.010207,-0.000208,0.999343,-10.17,14.13,-0.52
2,99,0.019689,-0.001228,0.999023,2.82,1.12,25.47
3,199,0.028719,-0.000977,0.999593,-8.18,-1.88,23.47
4,299,0.034563,-0.001405,0.999400,-4.19,-4.89,-16.54
5,399,0.042150,-0.001458,0.999914,-2.17,7.13,-1.52
6,499,0.045485,-0.001301,1.000259,-7.18,6.12,-10.53
7,599,0.051580,-0.001204,1.000808,-4.17,5.13,29.48
8,699,0.055534,-0.000884,1.001294,0.83,7.13,-9.52
9,799,0.059078,-0.000483,1.001359,-10.16,-2.86,3.49
10,899,0.062602,-0.000820,1.001249,-7.18,-1.88,1.47
11,999,0.064665,-0.001070,1.001485,-13.16,0.14,4.49
12,1109,0.067352,0.000237,1.000844,-5.16,8.14,-8.51
13,1209,0.066413,-0.000464,1.001178,-10.17,15.13,-46.52
14,1309,0.067940,-0.001079,1.001187,-6.16,-9.86,48.49
15,1419,0.070337,-0.001033,1.001524,-2.16,6.14,2.49
16,1519,0.071112,-0.001288,1.000731,1.84,8.14,-27.51
17,1619,0.072446,-0.001468,1.000770,-6.18,2.12,7.47
18,1719,0.072831,-0.001346,1.000932,-10.16,0.14,9.49
19,1819,0.073652,-0.001371,1.001106,-0.17,-9.87,2.48
20,1929,0.091085,-0.018347,0.950680,-5650.18,-357.88,834.47
21,2029,0.113081,-0.076631,1.007116,3265.81,-2152.89,980.46
22,2139,0.097226,-0.063239,1.072115,15305.83,2159.13,8.48
23,2239,0.137179,-0.086701,1.220776,-1536.18,2951.12,313.47
24,2339,0.115110,-0.037942,1.144834,484.83,82.13,-130.52
25,2439,0.105707,-0.012610,1.126865,-92.17,0.13,31.48
26,2539,0.104123,0.008611,1.102107,18.83,-12.87,43.48
27,2649,0.098749,0.027051,1.083790,10.84,6.14,-10.51
28,2749,0.094968,0.042616,1.070767,-0.17,3.13,11.48
29,2849,0.092908,0.055589,1.058067,-2.16,-0.86,6.49
30,2949,0.094087,0.056582,1.065601,12259.83,614.13,-157.52
31,3049,0.091390,0.109795,1.007259,16574.84,1062.14,-908.51
32,3159,0.143919,0.237881,0.936391,1018.83,118.13,2139.48
33,3259,0.135780,0.272156,0.943811,-349.17,450.13,-903.52
34,3359,0.122746,0.300393,0.942061,-131.17,-147.87,351.48
35,3469,0.119925,0.330987,0.930613,-95.16,-86.86,193.49
36,3569,0.110185,0.355673,0.921157,-376.16,102.14,-224.51
37,3669,0.101338,0.376693,0.912039,105.84,-113.86,261.49
38,3769,0.097755,0.397014,0.901798,-113.16,33.14,-63.51
39,3879,0.089912,0.411484,0.896078,-119.17,25.13,-31.52
40,3979,0.086889,0.425835,0.889367,95.83,-69.87,175.48
41,4079,0.083423,0.437375,0.884321,-155.15,76.15,-170.50
42,4189,0.079140,0.446506,0.881461,92.84,-54.86,130.49
43,4289,0.079088,0.455512,0.876997,-22.16,16.14,-32.51
44,4389,0.075802,0.461428,0.875785,-54.17,32.13,-61.52
45,4489,0.074585,0.467317,0.874424,114.83,-44.87,116.48
46,4589,0.074465,0.472560,0.873213,-90.18,57.12,-96.53
47,4699,0.072075,0.475974,0.872623,89.83,-20.87,55.48
48,4799,0.020623,0.487884,0.856210,-233.16,655.14,240.49
49,4899,0.047696,0.490720,0.849510,749.84,-66.86,126.49
50,4999,0.052836,0.487400,0.861319,-218.17,116.13,-314.52
1,0,0.013247,0.000707,0.998757,-11.18,0.12,-23.53
2,99,0.024159,0.000979,0.998946,-2.18,3.12,-4.53
3,199,0.033380,0.001466,0.998887,-12.16,9.14,21.49
4,299,0.043084,0.001935,0.999313,-8.18,0.12,0.47
5,399,0.049795,0.002444,1.000334,-4.17,3.13,-9.52
6,499,0.055885,0.003078,1.000598,0.84,-3.86,-1.51
7,599,0.060823,0.003085,1.000364,-0.16,-4.86,-10.51
8,699,0.064873,0.002524,1.000404,-5.18,0.12,16.47
9,799,0.069597,0.003072,1.000584,2.83,6.13,0.48
10,899,0.071856,0.002733,1.001433,0.84,-1.86,-12.51
11,999,0.075241,0.002537,1.001385,-2.15,4.15,22.50
12,1109,0.076469,0.003120,1.001638,-4.17,2.13,-9.52
13,1209,0.077953,0.002883,1.001907,-4.16,-0.86,10.49
14,1309,0.079837,0.003341,1.002027,1.84,13.14,-3.51
15,1409,0.080633,0.003456,1.001561,-4.16,-1.86,7.49
16,1509,0.082866,0.003700,1.001146,-3.16,9.14,-4.51
17,1619,0.084635,0.004512,1.000135,-1.16,14.14,-8.51
18,1719,0.088282,0.002766,0.989643,-451.17,-238.87,-189.52
19,1819,0.092773,-0.044018,1.016669,-4712.17,-1428.87,799.48
20,1919,0.092140,-0.094148,1.008770,13214.83,6807.13,595.48
21,2019,0.165376,-0.073074,0.968144,-1283.16,-2203.86,-1676.51
22,2129,0.140871,0.007680,0.869855,-925.17,62.13,676.48
23,2229,0.127074,0.027706,0.884307,-112.16,29.14,-29.51
24,2329,0.117176,0.041451,0.895237,50.83,-14.87,43.48
25,2439,0.112298,0.054490,0.908207,8.84,3.14,0.49
26,2539,0.106778,0.065371,0.921356,-11.16,18.14,-1.51
27,2639,0.102012,0.074693,0.930317,-1.18,1.12,4.47
28,2739,0.103437,0.046069,1.020753,10533.83,442.13,-71.52
29,2839,0.100637,0.056236,1.006436,17773.83,1884.13,-886.52
30,2949,0.076285,0.138193,0.936131,4326.84,-1426.86,1559.49
31,3049,0.083748,0.192018,0.934838,-1402.16,354.14,-685.51
32,3159,0.074179,0.234015,0.929142,-279.17,-43.87,155.48
33,3259,0.075365,0.276598,0.916336,105.83,-166.87,351.48
34,3359,0.072895,0.310431,0.906604,-314.16,139.14,-297.51
35,3459,0.067810,0.337706,0.900090,139.84,-70.86,164.49
36,3559,0.070043,0.364167,0.891678,74.82,-36.88,56.47
37,3669,0.066503,0.383382,0.887696,-128.18,65.12,-151.53
38,3769,0.066131,0.400959,0.883267,183.83,-81.87,207.48
39,3869,0.067115,0.416468,0.878935,-120.17,72.13,-158.52
40,3969,0.064215,0.427306,0.877487,36.83,-8.87,21.48
41,4069,0.066292,0.438826,0.874809,93.83,-38.87,111.48
42,4179,0.064523,0.447941,0.873888,-118.17,78.13,-152.52
43,4279,0.064045,0.455450,0.872391,117.83,-62.87,133.48
44,4379,0.065781,0.462931,0.870991,-59.17,38.13,-65.52
45,4489,0.063521,0.467349,0.871045,1.83,-2.87,18.48
46,4589,0.065135,0.472826,0.869810,56.83,-20.87,65.48
47,4689,0.065096,0.476346,0.869071,-101.17,50.13,-98.52
48,4789,0.064257,0.479118,0.868791,68.83,-33.87,82.48
49,4899,0.065705,0.482390,0.867216,-48.17,24.13,-54.52
50,4999,0.063951,0.483945,0.867324,-26.17,11.13,-12.52
1,0,0.011123,0.000158,0.999966,-17.17,4.13,-5.52
2,99,0.023288,0.000421,0.999717,-16.16,1.14,-14.51
3,199,0.033317,0.000846,1.000605,-9.15,1.15,-28.50
4,299,0.041072,0.002012,1.001011,5.83,13.13,-4.52
5,399,0.046309,0.002253,1.001448,0.84,9.14,16.49
6,499,0.051438,0.001853,1.001545,-15.17,6.13,5.48
7,599,0.056860,0.001551,1.001023,-4.16,-9.86,2.49
8,699,0.060883,0.001806,1.000872,1.85,3.15,0.50
9,799,0.063680,0.001730,1.001312,-9.15,-3.85,6.50
10,899,0.066313,0.001336,1.001136,-7.16,0.14,8.49
11,999,0.069614,0.001276,1.001042,3.86,2.16,1.51
12,1109,0.070991,0.001041,1.000888,-0.16,5.14,6.49
13,1209,0.072034,0.001226,1.000977,2.84,1.14,9.49
14,1309,0.073505,0.000816,1.000925,-3.16,2.14,9.49
15,1409,0.075141,0.000669,1.001393,-1.16,4.14,-14.51
16,1509,0.075817,0.000965,1.000198,-7.16,-2.86,-12.51
17,1619,0.076777,0.000704,1.000098,-8.16,7.14,4.49
18,1719,0.077226,0.000024,1.000067,-5.16,1.14,14.49
19,1819,0.077956,0.000343,1.000207,-10.15,5.15,-20.50
20,1919,0.078704,0.000798,1.000453,-3.16,12.14,-14.51
21,2019,0.079871,0.001752,1.001248,3.84,13.14,-12.51
22,2129,0.121916,-0.033600,0.993593,-6396.16,-3021.86,89.49
23,2229,0.089813,-0.093954,1.033357,770.84,-1351.86,364.49
24,2329,0.100685,-0.077707,1.068731,15863.84,3954.14,-48.51
25,2439,0.115913,-0.106505,1.171693,-9066.16,-4797.86,-438.51
26,2539,0.107233,-0.055416,1.143104,1220.85,96.15,51.50
27,2639,0.099213,-0.028287,1.112687,56.85,15.15,-29.50
28,2739,0.094100,-0.003890,1.100840,-2.15,-16.85,34.50
29,2849,0.093984,0.016572,1.087200,-9.14,10.16,-5.49
30,2949,0.089984,0.033709,1.070955,-1.15,15.15,-23.50
31,3049,0.086566,0.047927,1.059839,8.84,-4.86,8.49
32,3159,0.093036,0.049905,1.082305,13136.84,792.14,-553.51
33,3259,0.077313,0.095971,1.007541,15549.84,491.14,-430.51
34,3359,0.080703,0.171144,0.939780,1658.85,1128.15,1790.50
35,3459,0.086863,0.212647,0.950757,-463.15,402.15,-877.50
36,3559,0.080782,0.249537,0.947691,-296.15,-135.85,305.50
37,3669,0.083633,0.288436,0.935600,-98.16,-105.86,263.49
38,3769,0.079594,0.319780,0.924938,-399.14,111.16,-231.49
39,3869,0.075079,0.346312,0.915381,58.84,-97.86,253.49
40,3969,0.075820,0.371318,0.904950,-92.15,20.15,-32.50
41,4079,0.070956,0.389717,0.900003,-125.15,24.15,-54.50
42,4179,0.070869,0.407095,0.893399,98.85,-79.85,172.50
43,4279,0.070703,0.421592,0.888353,-128.16,69.14,-149.51
44,4379,0.067870,0.432578,0.885565,95.86,-29.84,82.51
45,4489,0.069289,0.443911,0.881163,28.85,15.15,2.50
46,4589,0.067181,0.451897,0.879052,-54.16,50.14,-78.51
47,4689,0.067459,0.458740,0.877238,119.85,-48.85,123.50
48,4789,0.068116,0.464868,0.876887,-30.15,28.15,-82.50
49,4899,0.067099,0.468776,0.875709,62.85,-3.85,31.50
50,4999,0.068323,0.473948,0.874049,60.86,-10.84,39.51
1,0,0.014291,0.001458,1.000314,-14.16,-1.86,24.49
2,99,0.027501,0.003522,0.999830,-9.15,6.15,8.50
3,199,0.045504,0.005221,1.001012,-0.14,20.16,20.51
4,299,0.052787,0.005182,1.000900,-4.15,13.15,32.50
5,399,0.058208,0.005699,1.001299,-0.14,16.16,-70.49
6,499,0.060948,0.005533,1.001436,-6.16,-16.86,8.49
7,599,0.066170,0.005667,1.001260,-14.16,0.14,-12.51
8,699,0.071086,0.005836,1.001458,-3.15,8.15,9.50
9,799,0.074806,0.005796,1.001224,-8.16,10.14,-1.51
10,899,0.077180,0.005598,1.000915,-3.16,8.14,15.49
11,999,0.078612,0.005374,1.000469,-7.16,1.14,19.49
12,1109,0.080416,0.005459,1.000493,-8.15,12.15,-5.50
13,1209,0.082426,0.005989,1.000697,-5.14,3.16,-3.49
14,1309,0.083529,0.006384,1.000668,-6.16,-0.86,44.49
15,1409,0.085968,0.006427,1.000241,8.84,-7.86,57.49
16,1509,0.088701,0.006702,1.001196,-0.15,13.15,-12.50
17,1619,0.087801,0.006020,1.000873,-9.16,-1.86,22.49
18,1719,0.089050,0.006282,1.000708,-7.16,5.14,-18.51
19,1819,0.087878,0.005681,1.001007,-5.16,5.14,12.49
20,1919,0.089189,0.005317,1.001244,7.84,0.14,16.49
21,2019,0.087373,0.005062,1.001957,-8.16,18.14,-59.51
22,2129,0.079514,-0.001069,0.924927,-5788.15,-2394.85,113.50
23,2229,0.084643,-0.085931,1.015329,-488.15,1237.15,1252.50
24,2329,0.087666,-0.072059,1.055293,20149.84,3681.14,83.49
25,2439,0.104096,-0.056221,1.056340,-8159.15,-1532.85,216.50
26,2539,0.107662,-0.022892,1.108499,697.84,65.14,549.49
27,2639,0.102160,-0.000513,1.093033,-55.15,5.15,11.50
28,2739,0.099259,0.017611,1.072452,11.83,7.13,3.48
29,2849,0.094981,0.034079,1.057357,-11.15,13.15,-16.50
30,2949,0.090777,0.048260,1.048299,-2.16,3.14,10.49
31,3049,0.089163,0.060149,1.039152,-12.15,-8.85,12.50
32,3159,0.094950,0.063480,1.059173,14782.84,1228.14,-704.51
33,3259,0.073209,0.128420,0.972773,12631.83,-156.87,-325.52
34,3359,0.066943,0.201674,0.923924,-234.14,1590.16,1753.51
35,3459,0.063851,0.243212,0.918694,-122.14,348.16,-656.49
36,3559,0.064298,0.277568,0.916812,365.86,-136.84,316.51
37,3669,0.070007,0.311860,0.910415,-35.14,22.16,-68.49
38,3769,0.067920,0.337731,0.907248,-161.15,61.15,-153.50
39,3869,0.069056,0.361497,0.902193,150.84,-102.86,252.49
40,3969,0.071103,0.383163,0.896451,-213.15,83.15,-153.50
41,4079,0.067900,0.398742,0.893767,16.86,-32.84,89.51
42,4179,0.070450,0.414272,0.888776,15.85,-31.85,90.50
43,4279,0.068406,0.426960,0.885980,-176.16,71.14,-160.51
44,4379,0.067089,0.438019,0.882852,93.83,-65.87,144.48
45,4489,0.068643,0.447603,0.879828,-110.16,46.14,-77.51
46,4589,0.066852,0.454449,0.878246,-35.16,6.14,-0.51
47,4689,0.067856,0.461861,0.876315,59.84,-42.86,108.49
48,4789,0.067867,0.467429,0.874454,-117.15,56.15,-117.50
49,4899,0.066705,0.471777,0.873513,65.85,-37.85,98.50
50,4999,0.067456,0.476993,0.871780,-51.16,25.14,-41.51
1,0,0.012936,-0.000135,0.999893,26.84,38.14,78.49
2,99,0.021972,-0.003381,1.000168,30.83,30.13,1.48
3,199,0.027327,-0.004583,1.000346,8.82,43.12,-73.53
4,299,0.032283,-0.003792,1.000352,-13.15,-6.85,-10.50
5,399,0.037812,-0.003359,1.000924,-14.18,-19.88,36.47
6,499,0.044582,-0.003027,0.998719,-27.18,-24.88,21.47
7,599,0.052625,-0.003403,0.999555,-9.17,0.13,13.48
8,699,0.059223,-0.003650,0.999294,-6.17,8.13,-15.52
9,799,0.064026,-0.003128,0.999696,2.83,8.13,-12.52
10,899,0.066534,-0.002885,1.000000,-0.18,2.12,30.47
11,999,0.069673,-0.003686,1.000094,3.83,2.13,28.48
12,1109,0.071700,-0.004037,0.999826,-3.17,10.13,-27.52
13,1209,0.072947,-0.003969,1.000514,-5.17,14.13,-32.52
14,1309,0.074447,-0.002831,1.000256,-13.16,-0.86,5.49
15,1419,0.075300,-0.002779,1.000019,-0.15,-3.85,15.50
16,1519,0.076410,-0.003028,1.000806,-9.18,-6.88,22.47
17,1619,0.078745,-0.003588,1.000944,-2.16,-0.86,10.49
18,1719,0.072105,-0.001372,0.970391,-651.17,-304.87,-122.52
19,1829,0.104896,-0.026643,0.939221,-4845.17,947.13,623.48
20,1929,0.115262,-0.055099,0.952863,16503.83,2413.13,192.48
21,2029,0.149031,-0.040726,0.863842,-409.17,4152.13,-2478.52
22,2139,0.130402,0.014449,0.838639,-2915.17,-126.87,-74.52
23,2239,0.126909,0.031720,0.859659,63.83,-7.87,16.48
24,2339,0.120826,0.047903,0.883569,-8.18,3.12,-10.53
25,2439,0.113331,0.060467,0.900121,-4.18,7.12,-11.53
26,2539,0.108040,0.071367,0.915581,0.83,2.13,7.48
27,2649,0.102682,0.080431,0.928320,-7.18,9.12,-4.53
28,2749,0.103987,0.068634,0.970147,11587.82,658.12,-7.53
29,2849,0.096326,0.095044,0.968201,16868.82,753.12,-260.53
30,2949,0.072712,0.170338,0.904491,5046.82,-1272.88,1580.47
31,3049,0.078934,0.222252,0.907083,-1576.17,97.13,-408.52
32,3159,0.070325,0.262296,0.901376,-286.18,-79.88,211.47
33,3259,0.071265,0.301845,0.889988,133.82,-157.88,346.47
34,3359,0.069209,0.332935,0.882579,-217.15,135.15,-284.50
35,3469,0.065556,0.357457,0.878826,131.83,-68.87,186.48
36,3569,0.067926,0.381304,0.873091,29.84,11.14,-26.51
37,3669,0.064923,0.398460,0.871055,-77.18,65.12,-138.53
38,3769,0.064568,0.414820,0.868774,196.84,-60.86,173.49
39,3879,0.065878,0.428835,0.866634,-105.18,78.12,-149.53
40,3979,0.064190,0.438551,0.866537,59.83,-2.87,27.48
41,4079,0.066288,0.448695,0.864751,101.82,-33.88,70.47
42,4189,0.064996,0.456585,0.864441,-89.17,54.13,-115.52
43,4289,0.064813,0.462560,0.864050,90.83,-38.87,97.48
44,4389,0.066360,0.468718,0.864542,-78.18,13.12,-17.53
45,4489,0.065479,0.472360,0.866076,-26.17,9.13,-15.52
46,4589,0.066743,0.476774,0.866154,52.82,-26.88,70.47
47,4699,0.066976,0.480233,0.866366,-82.17,36.13,-84.52
48,4799,0.066441,0.483026,0.866419,47.81,-23.89,67.46
49,4899,0.067359,0.486188,0.866060,-10.17,9.13,-4.52
50,4999,0.066145,0.488271,0.866488,-36.16,32.14,-70.51
1,0,0.011379,-0.000281,1.000241,-4.17,13.13,-56.52
2,99,0.018671,0.000138,0.999713,5.82,-8.88,78.47
3,199,0.029557,-0.000585,1.000930,1.81,5.11,44.46
4,299,0.036557,-0.001402,1.000811,14.81,15.11,-6.54
5,399,0.041775,-0.000704,1.000765,-1.18,12.12,-23.53
6,499,0.046576,0.000475,1.000250,-0.19,9.11,3.46
7,599,0.052671,0.000268,1.000526,-14.19,2.11,26.46
8,699,0.057211,0.000092,1.000376,-2.20,0.10,5.45
9,799,0.060594,-0.000222,1.001054,-1.19,2.11,-14.54
10,899,0.062756,-0.000104,1.000770,-11.19,9.11,-11.54
11,999,0.065233,-0.000041,1.001114,0.80,0.10,-5.55
12,1109,0.067394,0.000050,1.000931,-4.20,-6.90,10.45
13,1209,0.069195,-0.000606,1.000904,-9.19,-2.89,7.46
14,1309,0.071586,-0.000412,1.001063,-5.19,0.11,-4.54
15,1409,0.072556,-0.000486,1.001565,-10.20,21.10,-2.55
16,1509,0.073711,-0.000164,1.001149,-8.20,8.10,11.45
17,1619,0.074563,-0.000293,1.000979,-10.21,-2.91,-0.56
18,1719,0.074702,0.000348,1.000688,-13.19,4.11,-8.54
19,1819,0.075040,0.000196,1.000770,-8.21,4.09,22.44
20,1919,0.076408,0.000325,1.001023,-4.20,-5.90,18.45
21,2019,0.073762,-0.006927,0.936290,-5573.19,1386.11,1078.46
22,2129,0.095738,-0.047332,0.934845,8233.81,1017.11,357.46
23,2229,0.077100,-0.036394,0.991550,15963.80,2327.10,-869.55
24,2329,-0.039486,-0.064982,1.152296,-4228.19,316.11,-711.54
25,2439,-0.024364,-0.034276,1.120774,-352.20,-74.90,129.45
26,2539,-0.006218,-0.007829,1.096856,56.80,-18.90,52.45
27,2639,0.008199,0.012912,1.082458,22.79,10.09,-19.56
28,2739,0.017743,0.031091,1.069395,-4.20,-1.90,-9.55
29,2849,0.027028,0.045445,1.057579,2.81,15.11,14.46
30,2949,0.034756,0.059642,1.052515,-27.19,0.11,-22.54
31,3049,0.048630,0.062975,1.073460,14421.80,1380.10,-482.55
32,3159,0.029716,0.136596,0.980394,11237.81,-247.89,58.46
33,3259,0.070549,0.202928,0.940527,-1115.18,932.12,1787.47
34,3359,0.064606,0.243783,0.926324,-330.20,447.10,-828.55
35,3459,0.067356,0.280542,0.920404,-915.20,483.10,-853.55
36,3559,0.059201,0.306093,0.917825,-863.20,474.10,-816.55
37,3669,0.062871,0.331180,0.913564,-1160.20,516.10,-863.55
38,3769,0.058282,0.350087,0.906555,-2002.20,852.10,-1601.55
39,3869,0.054382,0.362294,0.901622,-2961.20,1341.10,-2607.55
40,3969,0.042057,0.363973,0.900945,-4103.20,1909.10,-4008.55
41,4079,0.013821,0.361903,0.899143,22.83,-219.87,585.48
42,4179,0.008588,0.361938,0.905064,-19.19,32.11,-73.54
43,4279,-0.000951,0.361217,0.906746,11.80,-82.90,158.45
44,4379,-0.013892,0.359212,0.909402,-8.19,-2.89,16.46
45,4489,-0.022696,0.357874,0.911000,-2.20,67.10,-131.55
46,4589,-0.024557,0.357964,0.912524,7.80,48.10,-81.55
47,4689,-0.027751,0.358607,0.914459,-9.20,-52.90,113.45
48,4789,-0.034970,0.357397,0.915171,-7.20,-27.90,74.45
49,4899,-0.041984,0.357082,0.915758,-6.19,22.11,-31.54
50,4999,-0.043735,0.357236,0.917172,2.81,44.11,-82.54
1,0,0.013008,0.000670,0.999160,-18.20,13.10,3.45
2,99,0.024595,0.001441,0.999489,-1.22,0.08,-4.57
3,199,0.033492,0.001840,0.999989,-0.22,11.08,-20.57
4,299,0.041549,0.002288,1.000120,-2.23,6.07,-45.58
5,399,0.047463,0.001205,1.000415,6.77,25.07,-46.58
6,499,0.052564,-0.001035,1.000849,1.78,-0.92,-14.57
7,599,0.057669,-0.001729,1.000980,3.79,8.09,31.44
8,699,0.061769,-0.001716,1.001073,-19.23,2.07,42.42
9,799,0.065493,-0.001356,1.001409,-23.22,3.08,17.43
10,899,0.068823,-0.000703,1.001217,2.78,4.08,-14.57
11,999,0.071361,-0.000422,1.000945,-1.23,7.07,-16.58
12,1109,0.072748,-0.000183,1.001336,-5.23,7.07,-2.58
13,1209,0.074020,-0.000109,1.001595,-7.21,11.09,0.44
14,1309,0.076217,0.000101,1.001541,2.77,1.07,7.42
15,1419,0.077298,0.000042,1.001642,0.79,-2.91,-2.56
16,1519,0.078015,-0.000100,1.001525,-2.23,5.07,10.42
17,1619,0.077965,0.000456,1.001848,-6.23,7.07,26.42
18,1719,0.078069,0.000215,1.001023,37.77,-17.93,-1.58
19,1819,0.093117,-0.029085,0.989592,-5604.23,-1044.93,498.42
20,1929,0.110833,-0.074260,0.997619,12518.78,5552.08,1557.43
21,2029,0.307918,0.068817,0.949235,-1135.22,-6944.92,-1449.57
22,2139,0.264849,0.126803,0.838346,1917.76,36.06,1528.41
23,2239,0.241901,0.128429,0.856352,203.77,-8.93,35.42
24,2339,0.216719,0.128749,0.878542,21.78,26.08,-32.57
25,2439,0.193300,0.129003,0.897311,-3.24,3.06,9.41
26,2539,0.177220,0.128834,0.912442,-12.23,0.07,21.42
27,2649,0.161063,0.128416,0.923874,5.77,11.07,-3.58
28,2749,0.145974,0.077688,1.082091,5992.78,82.08,-176.57
29,2849,0.136663,0.082048,1.064780,16975.75,1509.05,-582.60
30,2949,0.103976,0.155097,0.972063,8103.77,-1070.93,738.42
31,3049,0.116456,0.212995,0.955107,-2376.22,107.08,191.43
32,3159,0.093886,0.256899,0.930641,-260.23,154.07,-342.58
33,3259,0.088068,0.295279,0.915211,623.78,-177.92,389.43
34,3359,0.087718,0.327535,0.906141,19.76,85.06,-185.59
35,3469,0.079841,0.351218,0.901216,82.77,21.07,-29.58
36,3569,0.080084,0.374169,0.894447,226.77,-77.93,144.42
37,3669,0.078259,0.392376,0.890726,-123.22,108.08,-217.57
38,3769,0.075042,0.407139,0.889175,137.78,-49.92,110.43
39,3879,0.076152,0.421683,0.884816,1.76,25.06,-49.59
40,3979,0.073048,0.431902,0.883456,-62.23,40.07,-85.58
41,4079,0.073157,0.442274,0.880340,132.76,-68.94,159.41
