sample_num,timestamp_ms,acc_x(g),acc_y(g),acc_z(g),gyro_x(LSB),gyro_y(LSB),gyro_z(LSB)
1,0,-0.000280,0.001849,0.999536,-9.40,1.75,-12.75
2,98,-0.000194,0.003693,0.998993,-5.57,-2.42,16.08
3,198,-0.000469,0.005718,0.998696,-2.57,-6.42,-0.92
4,298,-0.000702,0.007182,0.999066,-8.58,7.57,20.07
5,398,-0.000882,0.008683,0.998630,-3.57,-3.42,2.08
6,498,-0.001347,0.009978,0.998735,0.43,3.58,2.08
7,598,-0.002273,0.011060,0.998495,-2.57,1.58,-35.92
8,698,0.000456,0.014360,0.998420,65.42,26.57,-288.93
9,798,0.006895,0.014967,0.998227,59.42,99.57,27.07
10,898,0.000101,0.018487,0.994767,176.43,-94.42,-449.92
11,998,0.007509,0.017249,0.996459,432.44,-319.41,-1223.91
12,1108,0.006317,0.015702,0.995425,91.42,2.57,255.07
13,1208,-0.002973,-0.000719,1.019486,3341.43,159.58,478.08
14,1308,0.000905,0.017898,1.008992,6865.43,169.58,1649.08
15,1418,0.027602,0.070892,0.964990,-1516.56,-457.41,-1800.91
16,1518,0.016401,0.042696,1.020898,-1225.57,-304.42,-1987.92
17,1618,-0.010569,0.045974,1.041668,9785.42,1498.58,3019.08
18,1718,0.008181,0.107520,0.976248,5935.44,1209.59,2997.09
19,1828,0.007822,0.148793,0.959606,-1508.57,-437.42,-2086.92
20,1928,0.040641,0.171203,0.986403,-2549.57,-82.42,-19.92
21,2028,0.006390,0.182708,0.972504,1633.42,-2775.43,-3436.93
22,2138,0.003352,0.180329,1.009029,6370.42,-89.43,1047.07
23,2238,0.014301,0.217473,0.964984,13482.42,2571.57,1390.07
24,2338,0.009471,0.280064,0.916212,10251.43,-1188.42,-1106.92
25,2438,0.000148,0.356338,0.841192,6620.43,-1301.42,-413.92
26,2538,0.004894,0.412619,0.815695,2443.42,-724.43,-275.93
27,2648,0.002336,0.469668,0.777762,3270.43,731.58,700.08
28,2748,0.004886,0.529274,0.726073,1398.43,-522.42,-127.92
29,2848,0.001250,0.569448,0.709420,-879.58,-82.43,-62.93
30,2948,0.004219,0.603485,0.693764,153.41,156.56,139.06
31,3058,0.006194,0.633315,0.678735,109.43,194.58,102.08
32,3158,0.007231,0.658926,0.667114,335.42,305.57,159.07
33,3258,0.008717,0.679761,0.657200,234.43,-254.42,-107.92
34,3358,0.009926,0.699431,0.645678,107.43,-47.42,30.08
35,3468,0.010220,0.714942,0.639546,-194.59,54.56,42.06
36,3568,0.013309,0.727759,0.632613,-97.57,328.58,133.08
37,3668,0.016081,0.736384,0.632708,-1150.57,316.58,101.08
38,3768,0.013841,0.746498,0.623047,-1459.57,438.58,169.08
39,3878,0.011480,0.748650,0.629173,-1252.57,-238.42,-121.92
40,3978,0.014343,0.750424,0.634031,-1392.59,-778.44,-387.94
41,4078,0.012143,0.749094,0.634993,-4419.58,3245.57,1101.07
42,4188,0.015163,0.743770,0.633705,-7740.58,485.57,625.07
43,4288,0.022583,0.718719,0.668262,-9114.57,-621.42,-613.92
44,4388,0.010139,0.679517,0.689559,-10581.59,-1624.44,-2160.94
45,4488,0.011354,0.622063,0.744228,-6731.57,-555.42,-842.92
46,4588,0.014968,0.575076,0.773174,-6170.58,-377.44,-136.94
47,4698,0.013261,0.513310,0.805083,-5643.59,-22.44,331.06
48,4798,0.017394,0.448707,0.843815,-2958.59,745.56,1643.06
49,4898,0.024735,0.407599,0.858482,-2970.59,367.56,505.06
50,4998,0.008745,0.362441,0.839894,-98.59,213.56,411.06
1,0,0.000044,0.003421,1.000577,-1.59,-0.44,8.06
2,99,0.000849,0.006511,1.000427,-6.62,-6.47,10.03
3,199,0.000618,0.009265,1.000079,-1.62,-15.47,-33.97
4,299,0.000348,0.011735,0.999802,9.38,8.53,9.03
5,399,0.000137,0.014951,0.996966,-29.63,-77.48,-151.98
6,499,-0.006928,0.019223,0.993951,131.36,-164.49,455.01
7,599,0.002229,0.020491,0.991169,83.36,-244.49,-685.99
8,699,0.007357,0.018366,1.005540,1270.38,-1486.47,-1730.97
9,799,-0.012838,0.022711,1.002392,243.38,35.53,-350.97
10,899,-0.011914,0.011372,1.014531,2771.38,382.53,870.03
11,999,-0.006660,0.029676,1.002253,3794.38,346.53,1067.03
12,1109,0.024411,0.054883,1.008882,2091.38,151.53,-261.97
13,1209,0.025846,0.067960,1.044345,5751.38,-285.47,-1418.97
14,1309,-0.000656,0.099181,1.019905,13724.39,-1297.46,-871.96
15,1419,0.009848,0.143333,1.011380,10279.37,-661.48,-428.98
16,1519,-0.006528,0.212613,0.965664,12189.38,623.53,312.03
17,1619,-0.002686,0.303287,0.887987,7026.38,475.53,254.03
18,1719,-0.008979,0.374831,0.845105,3464.36,113.51,182.01
19,1829,-0.007443,0.442748,0.794099,6274.38,752.53,344.03
20,1929,0.001187,0.508351,0.742651,2362.38,-902.47,-227.97
21,2029,0.011763,0.559407,0.711756,-206.62,-404.47,-124.97
22,2139,0.018226,0.601267,0.688077,-326.63,409.52,57.02
23,2239,0.020552,0.637892,0.666082,-173.62,-0.47,-16.97
24,2339,0.022272,0.670524,0.643119,-399.63,137.52,79.02
25,2439,0.022782,0.695369,0.629735,-1158.63,279.52,74.02
26,2539,0.019994,0.713026,0.624603,-516.62,35.53,42.03
27,2649,0.022750,0.728620,0.619655,263.38,-10.47,-49.97
28,2749,0.025587,0.744842,0.607520,-265.62,19.53,49.03
29,2849,0.028127,0.755774,0.603651,-750.62,138.53,-7.97
30,2949,0.030414,0.763711,0.602981,-358.62,137.53,13.03
31,3049,0.032303,0.770879,0.601459,-321.63,-330.48,-135.98
32,3159,0.033085,0.780194,0.585095,-4779.63,2888.52,720.02
33,3259,0.027176,0.779268,0.588161,-5739.62,2158.53,219.03
34,3359,0.020102,0.768208,0.587525,-10510.65,-2296.50,-1267.00
35,3469,0.011050,0.725959,0.598612,-16627.63,91.52,-193.98
36,3569,0.018535,0.648518,0.656376,-17464.63,-303.48,-1105.98
37,3669,-0.006249,0.548947,0.727685,-8618.63,587.52,965.02
38,3769,0.001158,0.478704,0.778045,-1542.63,-22.48,1057.02
39,3879,0.014668,0.427402,0.796534,-5183.63,-493.48,-1557.98
40,3979,0.010020,0.365686,0.833435,-297.64,315.51,1444.01
41,4079,0.005666,0.307918,0.852093,-44.64,-138.49,2004.01
42,4189,0.003998,0.260060,0.874343,-81.63,104.52,394.02
43,4289,0.000328,0.223152,0.894501,12.37,81.52,-65.98
44,4389,-0.003287,0.190517,0.907771,-3.65,32.50,-19.00
45,4489,-0.001415,0.165561,0.920791,19.37,-10.48,189.02
46,4589,0.005377,0.146985,0.933249,-80.63,10.52,50.02
47,4699,0.002232,0.126050,0.942886,-11.63,-3.48,5.02
48,4799,0.002160,0.108438,0.951609,2.37,35.52,-80.98
49,4899,0.000175,0.093633,0.958840,3.36,8.51,-12.99
50,4999,0.000759,0.080609,0.965060,-3.64,2.51,0.01
1,0,0.001434,0.002559,1.000247,-14.64,-7.49,2.01
2,99,0.000601,0.004002,1.000530,-6.65,10.50,3.00
3,199,0.001248,0.004459,1.000313,-8.66,1.49,9.99
4,299,0.000425,0.004756,0.999048,-11.65,13.50,-34.00
5,399,0.000696,0.004624,0.998925,-1.65,-1.50,-11.00
6,499,0.007371,0.004658,0.998344,-31.67,10.48,14.98
7,599,0.011013,0.008422,0.994591,-109.65,-11.50,1829.00
8,699,-0.002554,0.008326,1.000099,525.34,-324.51,-1416.01
9,799,-0.010936,-0.005672,1.021700,2754.35,131.50,477.00
10,899,-0.014473,0.009036,1.016604,3931.35,492.50,2521.00
11,999,-0.002079,0.039975,1.000554,1682.35,90.50,88.00
12,1109,0.008088,0.048055,1.024174,3968.34,-2172.51,-4102.01
13,1209,0.015926,0.064060,1.053277,15211.35,-1628.50,-932.00
14,1309,0.029417,0.121939,1.009845,15975.35,-1284.50,-76.00
15,1419,0.027317,0.188129,0.973697,13611.35,-1524.50,-755.00
16,1519,0.037800,0.270134,0.920065,9125.34,1011.49,358.99
17,1619,0.030413,0.358442,0.845803,3453.34,1949.49,348.99
18,1719,0.032338,0.424770,0.808571,247.33,-325.52,-412.02
19,1829,0.030770,0.479867,0.781868,1851.35,1236.50,134.00
20,1929,0.033191,0.535140,0.735990,317.34,-27.51,19.99
21,2029,0.033619,0.575733,0.715578,-534.65,-318.50,-67.00
22,2139,0.033176,0.611169,0.696928,295.32,363.47,133.97
23,2239,0.032727,0.642243,0.678732,-131.66,70.49,65.99
24,2339,0.034927,0.665927,0.670443,121.33,121.48,46.98
25,2439,0.032275,0.687011,0.662811,-37.65,-434.50,-257.00
26,2539,0.033811,0.705226,0.651380,182.34,-9.51,-59.01
27,2649,0.029660,0.721056,0.643037,560.34,310.49,22.99
28,2749,0.029885,0.741708,0.618148,117.34,287.49,108.99
29,2849,0.027257,0.752450,0.612190,-1150.65,517.50,220.00
30,2949,0.021507,0.757150,0.613956,-120.65,679.50,238.00
31,3049,0.021692,0.769293,0.601815,-56.65,-223.50,-155.00
32,3159,0.025401,0.775842,0.593619,-1945.67,-517.52,-147.02
33,3259,0.034761,0.780000,0.593904,-2694.67,1377.48,220.98
34,3359,0.025176,0.778480,0.587536,-4579.65,4110.50,522.00
35,3469,0.020287,0.765139,0.606806,-8175.66,-640.51,-60.01
36,3569,0.033893,0.747904,0.628275,-8524.65,-1488.50,-1747.00
37,3669,0.021417,0.696230,0.682157,-9213.65,-1516.50,-1695.00
38,3769,0.004385,0.637604,0.726766,-6124.66,-88.51,117.99
39,3879,0.002469,0.591928,0.751445,-2793.66,-10.51,350.99
40,3979,0.023233,0.559768,0.766545,-4825.67,265.48,1110.98
41,4079,0.026492,0.499145,0.818381,-3870.64,-1233.49,-2139.99
42,4189,0.025343,0.443092,0.858908,-1795.65,598.50,1596.00
43,4289,0.025996,0.405938,0.867849,-4868.66,2337.49,2730.99
44,4389,0.029280,0.331328,0.961197,-4379.65,-1040.50,-3482.00
45,4489,0.012789,0.294240,0.966312,-668.67,-213.52,542.98
46,4589,0.010711,0.254714,0.969085,-825.66,248.49,50.99
47,4699,0.013814,0.230820,0.969282,-198.68,-51.53,-2.03
48,4799,0.012937,0.207142,0.972690,5.34,88.49,190.99
49,4899,0.013601,0.182127,0.971503,111.34,-165.51,-563.01
50,4999,0.012793,0.165094,0.975310,-9.66,-34.51,-274.01
1,0,-0.000068,0.009187,0.999350,-1.66,51.49,-30.01
2,99,0.000184,0.016538,0.999199,-0.68,16.47,42.97
3,199,0.000710,0.023903,0.998888,-12.67,-9.52,16.98
4,299,0.001175,0.029541,0.998844,-5.69,5.46,9.96
5,399,0.000381,0.034242,0.998989,-29.67,52.48,-25.02
6,499,-0.002986,0.040472,1.006968,224.32,73.47,618.97
7,599,-0.003083,0.040072,1.008092,-1.69,-34.54,-584.04
8,699,-0.005766,0.043614,0.995278,844.32,-216.53,45.97
9,799,0.001512,0.049775,0.993358,172.33,135.48,666.98
10,899,0.014602,0.045105,1.010037,956.32,-221.53,-477.03
11,999,0.005293,0.053898,1.013996,3764.33,359.48,516.98
12,1109,0.021715,0.069795,1.008701,3166.32,215.47,498.97
13,1209,0.029009,0.088233,1.034760,5511.32,-184.53,-537.03
14,1309,0.016422,0.121795,1.008461,10497.33,490.48,214.98
15,1419,0.014769,0.159185,1.017070,14003.32,-2187.53,-1717.03
16,1519,0.036270,0.222112,0.985752,15714.32,-1725.53,-296.03
17,1619,0.035411,0.303176,0.919709,10716.31,1717.46,638.96
18,1719,0.009980,0.404618,0.803953,2802.30,987.45,685.95
19,1829,0.006491,0.470629,0.764704,-1813.67,-516.52,-234.02
20,1929,0.005156,0.519652,0.747621,279.32,-28.53,41.97
21,2029,0.006437,0.569049,0.711731,368.32,263.47,48.97
22,2139,0.006629,0.608693,0.689739,81.30,111.45,61.95
23,2239,0.006005,0.643671,0.666487,282.32,24.47,0.97
24,2339,0.005090,0.672598,0.648810,11.31,-13.54,-43.04
25,2439,0.005558,0.697075,0.634499,-14.67,195.48,5.98
26,2539,0.009471,0.719913,0.617280,-13.69,244.46,48.96
27,2649,0.007010,0.734309,0.613503,-707.69,-29.54,-81.04
28,2749,0.007703,0.748010,0.608168,315.32,-316.53,-191.03
29,2849,0.009682,0.762769,0.592611,-473.69,-54.54,-52.04
30,2949,0.009516,0.775625,0.574296,-3462.68,2588.47,602.97
31,3049,-0.000110,0.779064,0.572444,-6749.68,2679.47,796.97
32,3159,-0.008055,0.767832,0.554133,-11234.68,-1194.53,-606.03
33,3259,0.010223,0.730417,0.578413,-15523.69,-1313.54,-1730.04
34,3359,-0.000461,0.669739,0.648160,-13243.68,-1106.53,-1993.03
35,3469,-0.012436,0.599485,0.692393,-9700.68,-80.53,-45.03
36,3569,-0.024849,0.538286,0.723070,-5172.69,53.46,406.96
37,3669,-0.011322,0.470996,0.757715,-5434.69,103.46,1479.96
38,3769,-0.005041,0.393439,0.807140,-3674.67,-217.52,-838.02
39,3879,-0.000417,0.336926,0.839593,-67.68,45.47,1113.97
40,3979,-0.011923,0.288799,0.864761,63.31,82.46,964.96
41,4079,-0.005205,0.244760,0.886539,-33.69,6.46,48.96
42,4189,0.001659,0.208059,0.899501,13.32,35.47,42.97
43,4289,-0.010560,0.181533,0.913468,-12.66,-33.51,2.99
44,4389,-0.013257,0.153913,0.926346,-7.69,-9.54,122.96
45,4489,-0.008554,0.131095,0.936890,19.31,-8.54,-22.04
46,4589,-0.008586,0.111389,0.946292,6.31,2.46,8.96
47,4699,-0.007349,0.093504,0.954375,6.31,-7.54,30.96
48,4799,-0.005583,0.079711,0.960806,20.31,-10.54,37.96
49,4899,-0.006005,0.069470,0.966711,55.31,28.46,-263.04
50,4999,-0.008580,0.059685,0.971786,9.31,-4.54,3.96
1,0,-0.000124,-0.000097,0.999844,-1.69,-8.54,-2.04
2,99,0.000282,0.000425,0.999784,-17.71,-0.56,-6.06
3,199,0.000006,0.000301,0.999934,-12.70,-9.55,16.95
4,299,-0.000706,0.000891,1.000026,-11.70,5.45,2.95
5,399,-0.001017,0.000935,0.999902,6.30,3.45,7.95
6,499,-0.001465,0.000368,1.001774,7.30,8.45,73.95
7,599,-0.000217,0.002669,0.998697,-121.70,30.45,542.95
8,699,-0.003550,0.007427,0.997509,23.30,-11.55,-70.05
9,799,-0.002226,0.009530,0.998165,71.30,69.45,100.95
10,899,-0.001339,0.006484,1.000170,205.31,-85.54,-596.04
11,999,-0.009008,-0.003448,1.015039,1675.30,5.45,288.95
12,1109,-0.006115,0.000488,1.018010,4095.30,10.45,656.95
13,1209,-0.007135,0.031610,1.000229,8242.30,-840.54,-2794.04
14,1309,-0.019483,0.052406,1.002766,6234.29,-267.56,-620.06
15,1419,-0.016008,0.072061,1.021073,13890.30,596.45,867.95
16,1519,-0.000309,0.134287,0.993714,14590.30,-280.55,446.95
17,1619,0.003018,0.203695,0.959417,9103.29,389.44,72.94
18,1719,-0.000031,0.289371,0.884452,7195.30,2223.45,1419.95
19,1829,0.007833,0.360584,0.841844,2935.30,-935.55,-675.05
20,1929,0.006478,0.415439,0.827526,2918.31,532.46,67.96
21,2029,0.008275,0.481566,0.772107,2713.31,1259.46,846.96
22,2139,0.007074,0.529260,0.746790,-1212.70,-1141.55,-659.05
23,2239,0.004058,0.564910,0.734828,559.30,-105.55,9.95
24,2339,0.006584,0.602849,0.709464,666.31,-261.54,-168.04
25,2439,0.006387,0.634767,0.690082,19.30,-40.55,-2.05
26,2539,0.000453,0.662557,0.669598,1566.31,100.46,-76.04
27,2649,0.002531,0.689767,0.646602,735.30,-156.55,-86.05
28,2749,-0.000574,0.712218,0.629564,-758.71,-10.56,-42.06
29,2849,0.000358,0.725643,0.626068,-764.71,-246.56,-131.06
30,2949,0.002029,0.734821,0.629651,63.29,-403.56,-255.06
31,3059,0.004017,0.750221,0.609845,-1393.71,350.44,145.94
32,3159,0.005652,0.757415,0.605608,-3263.71,-1180.56,-780.06
33,3259,0.005302,0.752324,0.628026,-1990.71,-1779.56,-1181.06
34,3359,0.000995,0.754094,0.614268,-778.69,847.46,305.96
35,3469,0.004896,0.761073,0.594591,-7314.70,1068.45,746.95
36,3569,0.010647,0.741279,0.602072,-14630.70,-735.55,-749.05
37,3669,0.027803,0.679356,0.655251,-17459.70,-1461.55,-2457.05
38,3769,0.015763,0.588781,0.734364,-10981.71,-1141.56,-2902.06
39,3879,0.002709,0.509797,0.795110,-4430.70,176.45,1095.95
40,3979,0.007561,0.450954,0.814408,-2403.71,68.44,781.94
41,4079,0.015347,0.388799,0.836487,-5141.71,-31.56,83.94
42,4189,-0.003266,0.339720,0.849559,-255.72,284.43,1094.93
43,4289,0.000486,0.286046,0.867336,-88.72,-29.57,462.93
44,4389,-0.001176,0.243518,0.885413,49.31,-94.54,70.96
45,4489,-0.001528,0.205520,0.902280,49.29,-67.56,112.94
46,4589,-0.009773,0.174265,0.923061,63.29,-171.56,259.94
47,4699,-0.007516,0.150720,0.935782,42.29,3.44,-110.06
48,4799,-0.004774,0.128545,0.945240,-24.72,2.43,133.93
49,4899,-0.001876,0.109313,0.952418,-28.71,8.44,-18.06
50,4999,-0.001701,0.093478,0.959582,-2.71,7.44,-77.06
1,0,0.000864,0.001844,1.001674,-3.72,32.43,-25.07
2,99,-0.000178,0.002605,1.001303,-12.71,6.44,-8.06
3,199,-0.000606,0.003161,1.000603,-7.71,10.44,15.94
4,299,0.000092,0.004512,1.000814,-12.72,1.43,19.93
5,399,-0.000028,0.004946,1.000700,-3.72,-1.57,65.93
6,499,0.000016,0.006560,1.000548,-41.72,21.43,169.93
7,599,0.023125,0.004582,0.998917,210.29,147.44,1319.94
8,699,0.000525,0.008192,1.001230,472.29,-18.56,-271.06
9,799,0.003013,0.007873,0.999131,155.28,-162.57,-351.07
10,899,0.000714,0.001046,1.014412,1560.28,-489.57,-1860.07
11,999,-0.000580,0.013609,1.004422,1993.28,-65.57,581.93
12,1109,0.006468,0.024105,1.002045,1332.27,236.42,674.92
13,1209,0.011946,0.033355,1.003431,1177.28,-90.57,-399.07
14,1309,-0.002880,0.041273,1.003932,4230.28,822.43,601.93
15,1419,0.004037,0.061828,0.994579,11757.28,-2154.57,-3003.07
16,1519,0.002555,0.109091,0.978536,12239.27,-4773.58,-4018.08
17,1619,0.010085,0.145089,0.977827,11599.28,-620.57,-312.07
18,1719,0.020477,0.218663,0.942031,11777.29,2520.44,1326.94
19,1829,0.020778,0.312841,0.862478,9241.27,1130.42,200.92
20,1929,0.025208,0.404410,0.775063,188.28,-378.57,-238.07
21,2029,0.024396,0.465563,0.752543,-597.74,-21.59,-411.09
22,2139,0.028613,0.520308,0.725840,1234.29,455.44,82.94
23,2239,0.032417,0.569514,0.696220,543.27,391.42,-107.08
24,2339,0.036383,0.609545,0.676371,823.27,685.42,122.92
25,2439,0.037117,0.644614,0.655160,750.27,150.42,-82.08
26,2539,0.038053,0.675504,0.636105,718.28,204.43,10.93
27,2649,0.036981,0.703024,0.616595,368.28,136.43,-55.07
28,2749,0.036508,0.724035,0.604808,-302.74,652.41,3.91
29,2849,0.032958,0.743561,0.590523,129.28,669.43,-42.07
30,2949,0.037685,0.762759,0.571331,-916.73,1118.42,194.92
31,3049,0.037089,0.782903,0.548536,-2330.72,-255.57,-150.07
32,3159,0.009556,0.775893,0.555857,-7237.73,5546.42,600.92
33,3259,0.004884,0.767608,0.548256,-14812.73,-582.58,335.92
34,3359,0.015672,0.719056,0.581638,-16321.73,-356.58,-126.08
35,3469,0.007190,0.644810,0.651926,-14001.72,-764.57,-1918.07
36,3569,-0.028127,0.557183,0.715516,-4087.73,1088.42,2100.92
37,3669,-0.018027,0.506577,0.741991,-2713.72,312.43,1229.93
38,3769,-0.004700,0.452246,0.775482,-4393.73,-517.58,-1945.08
39,3879,-0.018714,0.385850,0.827515,-2920.73,-38.58,-961.08
40,3979,-0.025975,0.321045,0.861342,-122.74,-81.59,647.91
41,4079,-0.022130,0.284509,0.866201,-69.71,-102.56,68.94
42,4189,-0.022031,0.244354,0.885839,-98.73,-14.58,-149.08
43,4289,-0.018027,0.208354,0.901525,35.29,14.44,126.94
44,4389,-0.019385,0.178688,0.915810,-15.71,-16.56,38.94
45,4489,-0.025117,0.169549,0.932090,-2.73,4.42,691.92
46,4589,-0.017062,0.147772,0.942468,26.27,6.42,-53.08
47,4699,-0.016971,0.129757,0.950941,-15.71,3.44,8.94
48,4799,-0.016455,0.114518,0.957740,6.28,14.43,-12.07
49,4899,-0.015211,0.101564,0.963757,22.26,15.41,-10.09
50,4999,-0.014996,0.091102,0.969165,-3.73,20.42,5.92
1,0,-0.001700,0.004865,0.999660,15.27,7.42,-19.08
2,99,-0.003640,0.009127,0.999426,-0.74,5.41,-1.09
3,199,-0.004794,0.012751,0.998824,1.27,-4.58,-9.08
4,299,-0.006746,0.015648,0.999191,13.25,6.40,-8.10
5,399,-0.007288,0.017909,0.999229,5.27,1.42,5.92
6,499,-0.008865,0.019757,0.998400,7.27,10.42,-36.08
7,599,-0.008631,0.021732,0.996378,2.27,-20.58,-47.08
8,699,-0.014566,0.024087,0.997240,-6.72,23.43,-10.07
9,799,-0.027357,0.030539,0.996765,46.26,-130.59,-349.09
10,899,-0.032058,0.031262,0.995317,75.28,3.43,-1.07
11,999,-0.032264,0.033012,0.996027,204.25,-95.60,-129.10
12,1109,-0.026360,0.024886,1.014484,954.27,-336.58,-525.08
13,1209,-0.019529,0.023143,1.045992,5606.25,-182.60,183.90
14,1309,-0.020625,0.054309,1.012624,7949.27,-1568.58,-1258.08
15,1419,0.014624,0.073311,1.041793,10640.26,157.41,-206.09
16,1519,0.027356,0.124747,1.047196,15031.26,2793.41,1825.91
17,1619,0.027998,0.177458,1.019855,15512.28,461.43,937.93
18,1719,0.037168,0.269944,0.930184,8554.26,155.41,214.91
19,1829,0.031339,0.355587,0.865353,3472.28,899.43,335.93
20,1929,0.025670,0.430985,0.808544,3174.26,522.41,56.91
21,2029,0.019900,0.500163,0.750863,1952.28,195.43,73.93
22,2139,0.018309,0.557389,0.708352,1278.26,-112.59,13.91
23,2239,0.016005,0.609987,0.663722,-23.72,-13.57,48.93
24,2339,0.014267,0.649568,0.637030,-363.73,-538.58,-260.08
25,2439,0.011122,0.687369,0.604142,-148.74,332.41,124.91
26,2539,0.007607,0.719920,0.570730,-3404.73,759.42,69.92
27,2649,0.009362,0.744202,0.549490,-2639.73,-26.58,-145.08
28,2749,0.005323,0.761398,0.533999,-7816.75,2335.40,254.90
29,2849,-0.000893,0.756221,0.556428,-8767.75,640.40,3.90
30,2949,-0.004145,0.750814,0.566062,-8905.75,381.40,709.90
31,3059,0.014973,0.726918,0.575918,-10966.74,-1860.59,-2166.09
32,3159,0.005259,0.669107,0.641497,-12010.74,-1456.59,-2429.09
33,3259,-0.007246,0.602261,0.709416,-6163.75,-159.60,-496.10
34,3359,-0.006615,0.552895,0.735580,-5406.74,45.41,261.91
35,3469,-0.013879,0.487349,0.793323,-2904.75,-159.60,-87.10
36,3569,-0.011172,0.437898,0.816990,-2567.73,599.42,636.92
37,3669,-0.023410,0.364059,0.880338,35.26,988.41,608.91
38,3769,-0.024290,0.335079,0.879197,-368.74,324.41,595.91
39,3879,-0.024764,0.300466,0.896318,-291.73,467.42,187.92
40,3979,-0.027291,0.265626,0.913380,-80.74,612.41,415.91
41,4079,-0.031672,0.231122,0.926179,-561.74,1547.41,98.91
42,4189,-0.032486,0.207672,0.939366,64.25,-203.60,550.90
43,4289,-0.043137,0.186073,0.944990,94.27,-42.58,38.92
44,4389,-0.049446,0.167952,0.952004,-120.76,271.39,-91.11
45,4489,-0.053873,0.151231,0.958753,-23.74,11.41,-189.09
46,4589,-0.056099,0.139160,0.963154,94.26,-195.59,83.91
47,4699,-0.056343,0.129193,0.967278,-26.75,105.40,25.90
48,4799,-0.060523,0.117351,0.976680,-16.75,134.40,-98.10
49,4899,-0.062081,0.110985,0.978007,5.27,7.42,34.92
50,4999,-0.063533,0.103724,0.980380,3.25,-10.60,26.90
1,0,0.001797,0.009002,0.999550,-10.75,-8.60,-26.10
2,99,0.002628,0.015666,0.999057,-1.75,-8.60,-70.10
3,199,0.003371,0.021384,0.999060,-4.76,10.39,-38.11
4,299,0.005284,0.027307,0.999501,-8.76,-14.61,-78.11
5,399,0.005006,0.032854,1.000316,-22.75,0.40,-99.10
6,499,0.000723,0.047622,1.001393,75.25,-266.60,-1039.10
7,599,0.004737,0.050085,1.002657,772.25,-171.60,-307.10
8,699,-0.007709,0.053021,1.015999,1375.23,-32.62,399.88
9,799,0.001158,0.041509,1.041347,5821.25,1412.40,2763.90
10,899,0.001481,0.065800,1.025576,7790.25,1352.40,2285.90
11,999,0.023764,0.118033,0.987250,3029.24,-27.61,-223.11
12,1109,0.028533,0.143058,1.008580,5836.25,-3422.60,-5175.10
13,1209,0.016967,0.156767,1.041980,10394.24,-2387.61,-1164.11
14,1309,0.031819,0.212091,0.998978,16675.24,2122.39,1091.89
15,1419,0.031516,0.291947,0.929174,11323.23,282.38,270.88
16,1519,0.034407,0.371488,0.877770,5529.24,-624.61,-143.11
17,1619,0.036371,0.444591,0.816772,3026.24,740.39,430.89
18,1719,0.029123,0.519784,0.738740,507.25,-7.60,-43.10
19,1829,0.023657,0.570991,0.706965,-149.77,-521.62,-131.12
20,1929,0.024725,0.617446,0.671185,270.24,100.39,80.89
21,2029,0.022959,0.655029,0.646229,89.25,185.40,2.90
22,2139,0.019499,0.690966,0.615037,-133.75,103.40,13.90
23,2239,0.014745,0.719535,0.593138,-510.76,-90.61,-33.11
24,2339,0.011509,0.743727,0.573187,-942.77,-320.62,-103.12
25,2439,0.010444,0.764272,0.555515,-1850.77,-874.62,-327.12
26,2539,0.010288,0.779355,0.546573,-2569.77,-546.62,-310.12
27,2649,0.012738,0.785821,0.552723,-3762.77,2603.38,78.88
28,2749,-0.005339,0.789468,0.551597,-5282.76,1932.39,431.89
29,2849,-0.001258,0.780887,0.544725,-11354.75,-870.60,41.90
30,2949,0.009461,0.746419,0.585522,-13865.76,-694.61,-821.11
31,3059,-0.007594,0.681874,0.653249,-10301.76,-14.61,-498.11
32,3159,-0.009603,0.623678,0.698128,-4912.77,581.38,997.88
33,3259,0.016028,0.574340,0.709743,-6582.77,-721.62,-857.12
34,3359,0.015548,0.508122,0.750506,-7578.77,-1394.62,-2827.12
35,3469,-0.006906,0.425763,0.820091,-1706.77,462.38,1068.88
36,3569,0.018155,0.374837,0.869112,-1497.76,494.39,1421.89
37,3669,0.022190,0.329372,0.891170,-155.76,366.39,337.89
38,3769,-0.009134,0.321524,0.820746,-706.77,-28.62,745.88
39,3879,-0.055150,0.257194,0.986436,-4901.77,860.38,-1065.12
40,3979,-0.041584,0.227562,0.991572,49.23,-119.62,-88.12
41,4079,-0.035876,0.199738,0.992203,0.23,-447.62,-258.12
42,4189,-0.036535,0.175117,0.989535,155.23,-75.62,-13.12
43,4289,-0.027702,0.154281,0.990654,-9.76,-38.61,138.89
44,4389,-0.024297,0.137852,0.992814,22.21,-38.64,37.86
45,4489,-0.029770,0.125059,0.993350,30.22,-47.63,-12.13
46,4589,-0.025101,0.110963,0.993824,19.23,-9.62,23.88
47,4699,-0.023294,0.100409,0.994446,12.23,-19.62,92.88
48,4799,-0.021721,0.091823,0.994976,24.24,-21.61,57.89
49,4899,-0.016978,0.083810,0.995554,14.22,17.37,33.87
50,4999,-0.014266,0.076359,0.995257,11.22,-40.63,244.87
1,0,-0.002232,0.006897,0.999422,6.25,4.40,19.90
2,99,-0.003745,0.012539,0.999040,-1.78,-14.63,-9.13
3,199,-0.003732,0.017096,0.998623,-2.78,-3.63,13.87
4,299,-0.004269,0.021025,0.998801,-0.77,-4.62,-3.12
5,399,-0.004451,0.024017,0.998457,-4.78,10.37,6.87
6,499,-0.005027,0.026651,0.998714,-12.77,10.38,19.88
7,599,-0.004528,0.029092,0.998273,-21.79,10.36,61.86
8,699,-0.047994,0.025857,1.007622,-171.77,-564.62,-1280.12
9,799,-0.026640,0.027757,0.996213,207.21,81.36,-1185.14
10,899,-0.025188,0.022708,1.004992,1499.21,-174.64,-368.14
11,999,-0.016410,0.024293,1.012930,4068.23,644.38,1622.88
12,1109,-0.017188,0.056568,0.994426,3834.23,338.38,370.88
13,1209,0.000937,0.079991,0.990894,4666.22,-2814.63,-3756.13
14,1309,-0.007039,0.092119,1.011438,10387.22,-1515.63,-1530.13
15,1419,-0.007685,0.134801,0.994916,11784.23,281.38,490.88
16,1519,-0.001477,0.204881,0.948591,10517.21,415.36,439.86
17,1619,-0.000321,0.280892,0.905150,8682.22,532.37,565.87
18,1719,0.013150,0.349219,0.867786,4356.22,1396.37,284.87
19,1829,0.005814,0.420389,0.801840,6034.22,1514.37,-387.13
20,1929,0.024225,0.479400,0.768309,2476.24,314.39,-389.11
21,2029,0.012902,0.530786,0.736145,4301.22,1433.37,83.87
22,2139,0.012304,0.594771,0.667826,3184.22,1636.37,935.87
23,2239,0.026335,0.640589,0.628377,-1202.78,-270.63,184.87
24,2339,0.023430,0.675780,0.609311,-700.77,-251.62,-790.12
25,2439,0.018763,0.703898,0.597811,-132.79,-135.64,-84.14
26,2539,0.020839,0.731955,0.573698,504.23,280.38,87.88
27,2649,0.021615,0.755163,0.556993,-562.77,-99.62,-47.12
28,2749,0.023739,0.773114,0.548598,-440.77,162.38,16.88
29,2849,0.024208,0.791100,0.534431,-1190.77,1604.38,344.88
30,2949,0.019333,0.806937,0.510414,-2660.78,2261.37,624.87
31,3059,0.015995,0.823402,0.488809,-4924.78,1881.37,711.87
32,3159,0.013432,0.811670,0.519499,-6010.79,-551.64,-732.14
33,3259,-0.000008,0.803328,0.533225,-4303.78,-208.63,-181.13
34,3359,0.001002,0.794407,0.542183,-5633.77,166.38,362.88
35,3469,0.001201,0.776331,0.562871,-11129.78,615.37,388.87
36,3569,0.005764,0.731011,0.597887,-10664.79,-1174.64,-1572.14
37,3669,0.018597,0.666689,0.674068,-8790.78,-1096.63,-1884.13
38,3769,0.004438,0.603007,0.734116,-4756.79,-1015.64,-1903.14
39,3879,0.009376,0.538110,0.776826,-3943.79,-1168.64,-1726.14
40,3979,0.009454,0.497377,0.792054,-3321.78,91.37,529.87
41,4079,0.032134,0.432706,0.844750,-4233.78,126.37,-281.13
42,4189,0.020101,0.390883,0.848782,-1787.78,830.37,1828.87
43,4289,0.026865,0.354473,0.849975,-3858.77,-209.62,-165.12
44,4389,0.027981,0.315266,0.871662,-68.80,62.35,208.85
45,4489,0.018164,0.277289,0.891232,-46.77,66.38,160.88
46,4589,0.015075,0.247554,0.904698,144.22,34.37,280.87
47,4699,0.008384,0.219698,0.918524,179.23,1.38,140.88
48,4799,0.006120,0.198272,0.930570,153.22,91.37,372.87
49,4899,0.006943,0.177056,0.941559,7.20,30.35,-21.15
50,4999,0.005848,0.161660,0.949600,75.22,3.37,69.87
1,0,-0.000530,0.003161,0.999513,-3.77,-1.62,-0.12
2,99,-0.000743,0.005755,0.999428,1.18,-8.67,-7.17
3,199,-0.000851,0.007924,0.999594,6.19,5.34,-10.16
4,299,-0.001932,0.009987,0.999240,-11.83,-5.68,49.82
5,399,-0.001423,0.012876,0.999416,54.18,52.33,165.83
6,499,0.008093,0.011376,0.996087,-96.80,-59.65,575.85
7,599,0.003675,0.014771,0.994575,151.19,87.34,187.84
8,699,0.012078,0.008117,1.012516,674.20,-108.65,-866.15
9,799,-0.006817,0.008027,1.014106,3846.19,203.34,933.84
10,899,-0.005593,0.030930,1.001780,3981.19,211.34,1284.84
11,999,-0.005688,0.064223,0.983997,373.19,456.34,545.84
12,1109,-0.007215,0.056889,1.015774,2769.18,-567.67,-1416.17
13,1209,-0.012706,0.081948,1.014752,11014.19,-497.66,432.84
14,1309,0.013609,0.118611,0.990958,12554.19,-3970.66,-2396.16
15,1419,0.022902,0.172644,0.974029,11275.18,-1877.67,-2689.17
16,1519,0.021115,0.235784,0.962990,9455.19,1079.34,486.84
17,1619,0.018314,0.312250,0.910852,8007.19,2177.34,1370.84
18,1719,0.033328,0.389037,0.836377,4345.19,504.34,835.84
19,1829,0.042611,0.455406,0.786953,-177.81,-548.66,-881.16
20,1929,0.032631,0.513046,0.750344,-5.80,915.35,-289.15
21,2029,0.025686,0.562589,0.717157,-409.80,8.35,-45.15
22,2139,0.023866,0.601332,0.695375,-132.81,-88.66,-140.16
23,2239,0.022942,0.631828,0.676293,-572.81,120.34,-88.16
24,2339,0.023785,0.658738,0.661996,-881.81,19.34,39.84
25,2439,0.016684,0.678755,0.657772,-1172.82,74.33,22.83
26,2539,0.020589,0.696611,0.647992,-1382.84,-1222.69,-559.19
27,2649,0.018233,0.707688,0.646528,-1890.82,-587.67,-281.17
28,2749,0.012898,0.714449,0.641676,-3906.81,3544.34,928.84
29,2849,0.005031,0.721532,0.626675,-7365.81,3350.34,1432.84
30,2949,0.005119,0.702137,0.634377,-12771.81,348.34,518.84
31,3059,0.024255,0.649470,0.686316,-15001.82,-646.67,-642.17
32,3159,0.023253,0.570114,0.767580,-10721.83,-1136.68,-3139.18
33,3259,0.010793,0.510426,0.806972,-4550.81,127.34,897.84
34,3359,0.008185,0.460459,0.832619,-2009.83,62.32,608.82
35,3469,0.010656,0.408741,0.852258,-2586.82,30.33,228.83
36,3569,-0.010700,0.361228,0.823981,-522.83,737.32,1951.82
37,3669,-0.016126,0.307091,0.888513,-836.82,610.33,312.83
38,3769,-0.024382,0.314798,0.829675,-5409.83,90.32,-74.18
39,3879,-0.009098,0.264494,0.871142,-220.83,-50.68,578.82
40,3979,-0.013373,0.232173,0.890881,34.18,-2.67,433.83
41,4079,-0.007027,0.200745,0.902550,185.19,31.34,235.84
42,4189,0.002742,0.158065,0.931383,228.17,-152.68,288.82
43,4289,-0.002631,0.135666,0.940730,85.18,-114.67,188.83
44,4389,-0.001083,0.118457,0.949920,35.17,16.32,-178.18
45,4489,-0.003356,0.102622,0.956670,6.18,14.33,-0.17
46,4589,-0.003383,0.089400,0.962829,-7.81,7.34,72.84
47,4699,-0.003938,0.077520,0.968484,22.18,15.33,24.83
48,4799,-0.005472,0.069382,0.974134,31.17,-47.68,548.82
49,4899,-0.005859,0.060780,0.977380,3.18,-4.67,53.83
50,4999,-0.005859,0.054072,0.980743,3.19,14.34,-8.16
1,0,-0.000622,0.001824,0.999915,-4.81,33.34,-65.16
2,99,-0.004191,0.003007,0.998635,4.16,-5.69,-14.19
3,199,-0.003655,0.004562,0.998992,14.14,6.29,3.79
4,299,-0.005635,0.006360,0.999223,3.16,27.31,-50.19
5,399,-0.006859,0.006899,0.998834,-4.85,13.30,-34.20
6,499,-0.009071,0.008237,0.998851,12.18,75.33,-250.17
7,599,0.009757,0.000090,1.015948,-139.85,-49.70,1418.80
8,699,0.000291,0.001753,1.015998,161.17,136.32,-548.18
9,799,-0.006510,0.005071,1.011939,326.16,141.31,-159.19
10,899,-0.011283,0.007525,1.010008,198.16,42.31,-82.19
11,999,-0.024514,0.000639,1.017907,1755.17,96.32,439.82
12,1109,-0.041034,0.014781,1.003875,4378.16,192.31,1271.81
13,1209,-0.014189,0.042255,0.994071,7669.15,-538.70,-2267.20
14,1309,-0.019367,0.062642,1.011502,7178.17,-2539.68,-3549.18
15,1419,-0.004378,0.094015,1.009435,13529.16,-660.69,120.81
16,1519,-0.000023,0.164463,0.982026,11960.17,-507.68,371.82
17,1619,0.011809,0.233371,0.954443,9841.16,-1683.69,-698.19
18,1719,0.021481,0.315142,0.899009,9238.17,-1489.68,-911.18
19,1829,0.024924,0.396311,0.830357,5290.17,241.32,-8.18
20,1929,0.028820,0.463547,0.778374,1506.15,-256.70,339.80
21,2029,0.035427,0.522529,0.732743,136.15,-96.70,-222.20
22,2139,0.032676,0.571638,0.702489,-59.83,94.32,-51.18
23,2239,0.036509,0.613271,0.676865,311.16,-19.69,-107.19
24,2339,0.034620,0.650526,0.650158,199.15,106.30,23.80
25,2439,0.035048,0.681223,0.628648,-19.84,164.31,23.81
26,2539,0.037407,0.707809,0.611115,-527.84,-158.69,-11.19
27,2649,0.034561,0.726710,0.596890,-2294.82,1532.33,166.83
28,2749,0.026905,0.736659,0.596755,-2285.84,300.31,-16.19
29,2849,0.033067,0.751872,0.590159,-1556.84,-1395.69,-427.19
30,2949,0.047992,0.763540,0.582080,-4077.83,94.32,-151.18
31,3059,0.025559,0.752951,0.593725,-7354.81,3457.34,-750.16
32,3159,0.019069,0.733915,0.620377,-9837.85,741.30,377.80
33,3259,0.009836,0.698380,0.653725,-8007.84,1655.31,1006.81
34,3359,0.010832,0.656585,0.691244,-6917.85,180.30,799.80
35,3469,-0.008555,0.614064,0.726797,-7551.84,761.31,1226.81
36,3569,-0.008791,0.573674,0.726183,-9349.82,-867.67,-819.17
37,3669,-0.024246,0.499883,0.763819,-10489.85,-478.70,-645.20
38,3769,-0.019987,0.418282,0.814707,-3158.84,-23.69,1034.81
39,3879,-0.021220,0.369961,0.831338,-1401.85,-142.70,-325.20
40,3979,-0.006044,0.309075,0.866916,-231.84,-58.69,583.81
41,4079,-0.001677,0.264610,0.882198,-277.84,-162.69,342.81
42,4189,0.006997,0.226870,0.907547,-17.84,-230.69,-247.19
43,4289,0.003419,0.203195,0.906150,248.15,119.30,-73.20
44,4389,-0.002404,0.179849,0.919612,190.16,23.31,-694.19
45,4489,-0.025098,0.167859,0.927630,-56.86,-90.71,-636.21
46,4589,-0.017983,0.145840,0.939480,-20.85,13.30,-2.20
47,4699,-0.018327,0.126281,0.948253,33.14,27.29,-168.21
48,4799,-0.016512,0.109235,0.955656,26.16,24.31,-83.19
49,4899,-0.015483,0.094563,0.961728,7.15,6.30,11.80
50,4999,-0.013179,0.081725,0.967933,20.15,30.30,52.80
1,0,-0.001447,0.002500,0.999530,-3.84,-13.69,49.81
2,99,-0.001653,0.004643,0.999845,-10.88,7.27,4.77
3,199,-0.001700,0.006465,0.999746,-0.88,9.27,61.77
4,299,-0.003132,0.008269,0.999570,4.11,4.26,32.76
5,399,0.000540,0.010151,1.001069,-12.89,15.26,156.76
6,499,-0.013861,0.013582,1.002032,-68.87,-75.72,394.78
7,599,-0.016252,0.012488,0.999426,222.11,130.26,-512.24
8,699,-0.017039,0.013279,0.998767,448.12,547.27,473.77
9,799,-0.012453,0.011534,1.004323,265.10,-53.75,-59.25
10,899,-0.024631,0.002893,1.012744,3481.13,120.28,1126.78
11,999,-0.015756,0.018838,1.004650,5304.12,-336.73,1348.77
12,1109,-0.006675,0.048358,0.996909,3219.11,-725.74,-64.24
13,1209,-0.008532,0.069385,0.989377,2024.11,36.26,43.76
14,1309,0.023342,0.097604,1.030454,4973.11,-1076.74,-2169.24
15,1419,0.024746,0.123530,1.034314,12085.11,-319.74,-961.24
16,1519,0.040661,0.194128,0.988396,12078.11,-2938.74,-1985.24
17,1619,0.041243,0.246793,0.965258,10866.11,-739.74,-1421.24
18,1719,0.026797,0.325469,0.912102,7893.12,11.27,-387.23
19,1829,0.030026,0.396483,0.863018,5112.11,551.26,789.76
20,1929,0.027168,0.466384,0.803573,4076.11,1372.26,815.76
21,2029,0.030489,0.520471,0.766685,2482.12,-416.73,-157.23
22,2139,0.032029,0.573440,0.720206,-4.90,-438.75,56.75
23,2239,0.031489,0.614692,0.692089,51.11,335.26,-149.24
24,2339,0.030297,0.650580,0.664636,-63.88,-154.73,-456.23
25,2439,0.029632,0.683044,0.640368,-256.89,468.26,-545.24
26,2539,0.000265,0.718768,0.628566,-881.89,542.26,-273.24
27,2649,0.000040,0.738166,0.618479,862.12,995.27,370.77
28,2749,-0.000371,0.762912,0.586797,-1340.89,-1592.74,-580.24
29,2849,-0.000775,0.774058,0.580192,-2544.89,-572.74,-330.24
30,2949,-0.001393,0.773151,0.595342,-2438.87,-887.72,-422.22
31,3059,0.001854,0.776774,0.598515,-398.88,-889.73,-404.23
32,3159,0.003991,0.785731,0.581144,-1166.87,-390.72,-216.22
33,3259,0.006522,0.784446,0.586117,-2812.88,-572.73,-362.23
34,3359,0.006420,0.774235,0.612537,-2335.88,-819.73,-381.23
35,3469,0.004595,0.768668,0.618404,-1892.88,935.27,518.77
36,3569,0.008225,0.758114,0.631429,-5384.89,3146.26,1154.76
37,3669,0.006788,0.734238,0.651363,-10638.88,-67.73,317.77
38,3769,-0.003205,0.696218,0.677389,-11317.89,1797.26,1988.76
39,3879,0.007235,0.636235,0.735821,-10484.89,247.26,672.76
40,3979,-0.004472,0.578840,0.753463,-5813.88,408.27,452.77
41,4079,-0.001240,0.519929,0.771864,-6867.90,154.25,-1266.25
42,4189,-0.001386,0.441180,0.805358,-6680.88,-267.73,-2161.23
43,4289,-0.003817,0.379864,0.824544,-611.89,-362.74,1045.76
44,4389,0.001368,0.326117,0.851821,-124.88,-1.73,-224.23
45,4489,-0.002886,0.279955,0.873450,11.11,-189.74,-2.24
46,4589,-0.001081,0.240828,0.897822,157.12,-29.73,-401.23
47,4699,-0.002313,0.199403,0.924287,111.11,-397.74,-148.24
48,4799,-0.004714,0.171223,0.936328,-41.88,-52.73,-25.23
49,4899,-0.007049,0.146923,0.944200,45.12,32.27,-120.23
50,4999,-0.008135,0.127165,0.952887,-13.86,37.29,29.79
1,0,-0.001448,0.002756,0.999072,4.13,21.28,-15.22
2,99,-0.004016,0.005154,0.999748,-14.90,-15.75,-32.25
3,199,-0.004899,0.007503,0.999499,3.11,21.26,24.76
4,299,-0.005851,0.009261,0.998738,3.10,-16.75,28.75
5,399,-0.008730,0.010719,0.998951,-6.90,-49.75,87.75
6,499,-0.013374,0.015675,0.997411,-64.92,-40.77,263.73
7,599,-0.004431,0.013663,0.995517,95.10,149.25,-292.25
8,699,0.006412,0.012849,1.001999,537.10,601.25,-290.25
9,799,0.003141,0.010107,1.008975,268.10,267.25,124.75
10,899,-0.002185,0.008619,1.022740,1161.11,203.26,743.76
11,999,-0.013945,0.004039,1.032958,3918.10,3.25,1399.75
12,1109,-0.015737,0.028821,1.014800,3768.10,-732.75,1392.75
13,1209,-0.008545,0.057484,1.011927,1473.09,29.24,1166.74
14,1309,0.003556,0.069836,1.020178,791.11,278.26,-47.24
15,1419,-0.008168,0.093263,1.002197,6411.11,-1536.74,-3526.24
16,1519,-0.017620,0.108634,1.004034,11434.09,-893.76,-1164.26
17,1619,-0.015291,0.170571,0.956413,12652.10,450.25,836.75
18,1719,-0.000695,0.227539,0.944665,11489.11,-2005.74,-66.24
19,1829,0.010631,0.313937,0.875756,8850.10,2847.25,1332.75
20,1929,0.011836,0.394096,0.804750,2225.11,310.26,704.76
21,2029,0.020532,0.453991,0.776109,7.11,-868.74,-344.24
22,2139,0.023968,0.505671,0.752185,334.09,-268.76,-234.26
23,2239,0.028464,0.550184,0.731959,619.10,-472.75,-105.25
24,2339,0.028769,0.592745,0.704239,433.10,164.25,150.75
25,2439,0.040144,0.627640,0.681446,3.10,615.25,-86.25
26,2539,0.036683,0.660230,0.657329,-768.91,675.24,-344.26
27,2649,0.037550,0.691448,0.631117,-2602.90,210.25,-416.25
28,2749,0.037280,0.707216,0.623430,-2600.90,-208.75,-523.25
29,2849,0.031759,0.716023,0.633358,-2672.89,1359.26,-745.24
30,2949,0.026224,0.729753,0.640442,-257.90,-74.75,-645.25
31,3059,0.024174,0.736736,0.636117,-1315.90,504.25,152.75
32,3159,0.023072,0.740786,0.631507,-2040.91,371.24,108.74
33,3259,0.014555,0.737142,0.626582,-6126.91,2659.24,984.74
34,3359,0.018759,0.718315,0.659272,-5895.91,2680.24,1199.74
35,3469,-0.011633,0.690155,0.657433,-11575.90,265.25,2136.75
36,3569,-0.003060,0.651405,0.676469,-9062.90,-466.75,89.75
37,3669,-0.001524,0.604735,0.701183,-13190.90,-205.75,-926.25
38,3769,0.001357,0.516561,0.760019,-8664.90,1415.25,-1365.25
39,3879,-0.019192,0.441283,0.802961,-3494.90,199.25,-52.25
40,3979,-0.024446,0.388283,0.822507,-2663.91,-207.76,410.74
41,4079,-0.011351,0.342428,0.846152,5.11,201.26,1000.76
42,4189,0.004796,0.287905,0.874161,110.10,16.25,1581.75
43,4289,0.003140,0.256465,0.889637,304.10,171.25,193.75
44,4389,-0.001911,0.221356,0.907112,174.11,126.26,163.76
45,4489,-0.000730,0.194076,0.919275,95.09,-3.76,-38.26
46,4589,-0.002801,0.170284,0.930621,122.11,-36.74,-91.24
47,4699,-0.004178,0.150042,0.940099,66.09,30.24,-41.26
48,4799,-0.006465,0.135308,0.949383,1.10,36.25,70.75
49,4899,-0.006249,0.122346,0.956762,69.11,46.26,1.76
50,4999,-0.007090,0.112828,0.963217,44.08,39.23,-24.27
1,0,-0.000021,0.006454,0.999694,-1.90,-19.75,52.75
2,99,-0.000991,0.012453,0.999343,-9.91,22.24,2.74
3,199,-0.003555,0.018266,0.999319,-2.92,17.23,-8.27
4,299,-0.003611,0.022621,0.999482,5.09,33.24,-27.26
5,399,-0.001827,0.026744,0.999931,-24.92,-0.77,165.73
6,499,-0.003918,0.029828,0.998977,-24.91,-27.76,279.74
7,599,-0.006318,0.036019,0.999063,43.09,-105.76,-13.26
8,699,0.013066,0.033701,1.001168,453.09,190.24,-174.26
9,799,-0.001586,0.038653,1.001749,-34.92,-100.77,423.73
10,899,-0.001003,0.043502,0.998087,234.09,207.24,867.74
11,999,-0.020741,0.039238,1.010446,2933.07,81.22,-130.28
12,1109,-0.012909,0.055334,1.008775,11603.09,-1694.76,-1864.26
13,1209,-0.004493,0.096609,0.984613,13764.08,-1283.77,-1559.27
14,1309,-0.007539,0.146928,0.969349,14550.10,-2943.75,-1298.25
15,1419,0.012668,0.224928,0.929329,12536.08,203.23,1139.73
16,1519,0.019554,0.303991,0.876581,9064.08,908.23,1015.73
17,1619,0.033226,0.392123,0.799207,3907.09,642.24,1718.74
18,1719,0.042576,0.462769,0.747264,1646.08,852.23,16.73
19,1829,0.045067,0.524979,0.704888,230.08,371.23,-107.27
20,1929,0.048632,0.575385,0.673959,-598.91,73.24,-129.26
21,2029,0.053913,0.615685,0.652632,-592.91,-142.76,-415.26
22,2139,0.057048,0.651112,0.632965,-868.92,-120.77,-319.27
23,2239,0.062697,0.677380,0.622969,-996.91,279.24,-524.26
24,2339,0.059002,0.700953,0.610132,-1250.92,198.23,-602.27
25,2439,0.054434,0.717511,0.608871,-1094.91,274.24,-661.26
26,2539,0.055238,0.731530,0.606242,-599.91,374.24,-861.26
27,2649,0.041493,0.742750,0.607615,-707.93,99.22,27.72
28,2749,0.035210,0.750859,0.612352,-168.93,12.22,104.72
29,2849,0.023187,0.761982,0.597207,-618.93,736.22,324.72
30,2949,0.026243,0.770905,0.588143,-2072.92,-6.77,-21.27
31,3059,0.029701,0.770232,0.589631,-4087.92,-237.77,71.73
32,3159,0.030883,0.762720,0.609554,-3624.92,-5.77,-167.27
33,3259,0.024508,0.760290,0.623687,-6799.92,4072.23,516.73
34,3359,0.019144,0.746798,0.615485,-10684.91,2339.24,1644.74
35,3469,0.028886,0.697318,0.646727,-14103.92,841.23,983.73
36,3569,0.019936,0.626402,0.704375,-12454.91,-1049.76,-1624.26
37,3669,-0.003455,0.544316,0.759344,-6674.91,57.24,-697.26
38,3769,-0.005723,0.481098,0.787630,-2052.91,-809.76,-365.26
39,3879,0.029281,0.411634,0.858950,1896.07,2133.22,-612.28
40,3979,0.027963,0.352937,0.881010,-14.91,-42.76,465.74
41,4079,0.025853,0.299475,0.897272,-18.91,65.24,-127.26
42,4189,0.020104,0.256027,0.915488,-23.92,147.23,344.73
43,4289,0.016372,0.220800,0.924911,-22.91,5.24,-205.26
44,4389,0.017245,0.188824,0.935539,58.08,24.23,-67.27
45,4489,0.014326,0.161479,0.945196,51.08,-9.77,-34.27
46,4589,0.012980,0.138383,0.953294,54.08,8.23,-99.27
47,4699,0.013117,0.117836,0.959683,33.08,39.23,-53.27
48,4799,0.012263,0.100462,0.964564,33.07,182.22,-90.28
49,4899,0.018184,0.090346,0.961663,47.08,58.23,864.73
50,4999,0.012194,0.077681,0.965918,-13.93,2.22,99.72
1,0,-0.002036,0.002041,0.999566,-43.94,0.21,284.71
2,99,-0.002815,0.003739,0.999508,-11.94,3.21,-2.29
3,199,-0.003476,0.005641,0.999679,-9.92,7.23,13.73
4,299,-0.003965,0.006067,0.999586,9.07,39.22,-33.28
5,399,-0.003703,0.006740,0.999288,-0.92,10.23,0.73
6,499,-0.004487,0.010425,0.998155,21.08,55.23,-212.27
7,599,0.013413,0.015755,0.996350,27.08,239.23,776.73
8,699,-0.007315,0.018345,1.001243,353.08,107.23,-983.27
9,799,-0.010634,0.016444,1.003717,345.08,310.23,124.73
10,899,-0.007302,0.017978,1.002542,959.09,1072.24,699.74
11,999,-0.021499,0.011793,1.019122,2094.07,542.22,481.72
12,1109,-0.023917,0.019627,1.033233,4803.08,-6.77,1773.73
13,1209,-0.028829,0.045970,1.003827,9903.06,-2451.79,-2072.29
14,1309,-0.018026,0.084952,0.980298,9570.09,-1999.76,-2041.26
15,1419,-0.015196,0.129237,0.972785,8920.09,-1558.76,-910.26
16,1519,-0.009825,0.190115,0.952264,8065.08,-1291.77,-8.27
17,1619,-0.013866,0.248197,0.911456,7418.08,1788.23,1976.73
18,1719,-0.006699,0.319155,0.859777,4401.08,1548.23,1348.73
19,1829,0.006461,0.388588,0.817333,979.07,139.22,98.72
20,1929,0.010579,0.440465,0.798597,747.09,751.24,-525.26
21,2029,0.008422,0.488351,0.774174,823.08,139.23,-7.27
22,2139,0.015065,0.529328,0.757388,723.08,121.23,403.73
23,2239,0.023441,0.566539,0.736400,262.07,-140.78,68.72
24,2339,0.028143,0.597967,0.718341,-560.92,-182.77,-337.27
25,2439,0.030052,0.621733,0.708502,-722.93,237.22,-269.28
26,2539,0.033067,0.639151,0.704130,-308.91,343.24,-337.26
27,2649,0.034659,0.653718,0.701074,-88.92,260.23,-334.27
28,2749,0.032570,0.671154,0.688991,-669.92,872.23,-275.27
29,2849,0.027187,0.687695,0.674747,-1641.92,58.23,-240.27
30,2949,0.033305,0.689011,0.678368,-995.94,959.21,-510.29
31,3059,0.025248,0.692657,0.681593,-1656.92,-334.77,-120.27
32,3159,0.026255,0.689457,0.695100,-1789.92,-148.77,166.73
33,3259,0.021306,0.686572,0.706344,-764.93,408.22,366.72
34,3359,0.026585,0.690016,0.687867,-7089.92,1288.23,841.73
35,3469,0.010363,0.660131,0.678443,-13445.92,3018.23,1514.73
36,3569,0.016166,0.610577,0.706888,-12662.93,-728.78,-1253.28
37,3669,-0.001917,0.536229,0.773969,-8742.91,-690.76,-1210.26
38,3769,0.013419,0.472008,0.820550,-4160.92,-900.77,-1512.27
39,3879,0.004133,0.418263,0.842346,-1696.92,-71.77,-496.27
40,3979,-0.000060,0.369760,0.853365,-2787.92,0.23,327.73
41,4079,0.013734,0.281455,0.966022,-1790.92,1737.23,-351.27
42,4189,0.015003,0.244409,0.974475,-42.93,81.22,305.72
43,4289,0.007073,0.209807,0.984461,-1.93,-5.78,274.72
44,4389,0.007950,0.179425,0.985736,334.08,91.23,502.73
45,4489,-0.009964,0.158856,0.985537,29.07,-10.78,-300.28
46,4589,-0.021235,0.149446,0.986448,147.06,102.21,450.71
47,4699,-0.018566,0.130682,0.987974,46.07,23.22,7.72
48,4799,-0.016938,0.113743,0.990644,17.06,34.21,67.71
49,4899,-0.013632,0.099400,0.990771,28.07,-21.78,-97.28
50,4999,-0.010913,0.086842,0.991831,117.07,88.22,-98.28
1,0,-0.001212,0.004788,0.999126,4.06,-4.79,219.71
2,99,-0.001235,0.007319,0.999465,-4.92,5.23,-55.27
3,199,-0.003159,0.010258,0.999532,5.07,1.22,3.72
4,299,-0.003036,0.012610,0.999241,4.07,-0.78,10.72
5,399,-0.003444,0.015268,0.999196,-3.92,-9.77,76.73
6,499,-0.003187,0.016154,0.997363,5.07,-9.78,107.72
7,599,-0.004177,0.018024,0.997105,6.07,13.22,35.72
8,699,-0.009541,0.020438,0.993754,18.08,-73.77,122.73
9,799,-0.002731,0.021263,0.997590,-44.94,-25.79,418.71
10,899,-0.005804,0.020828,0.999952,201.06,-164.79,-599.29
11,999,0.000154,0.023829,0.995204,843.08,-387.77,-2120.27
12,1109,-0.022120,-0.003413,1.035077,5398.07,637.22,1864.72
13,1209,-0.023420,0.019648,1.019805,10966.06,815.21,5245.71
14,1309,-0.001344,0.072428,0.986957,3962.06,-1907.79,1247.71
15,1419,0.016598,0.108594,0.989193,4590.07,1725.22,110.72
16,1519,0.000646,0.151640,0.978057,10859.07,-1995.78,-2859.28
17,1619,0.001003,0.196688,0.959967,13038.05,-1957.80,-1331.30
18,1719,0.026136,0.251074,0.929704,11823.06,345.22,808.72
19,1829,0.033162,0.330902,0.863460,9243.07,1658.22,1125.72
20,1929,0.041405,0.416535,0.788512,786.07,-174.78,1296.72
21,2029,0.049052,0.477824,0.752620,-781.93,484.22,-514.28
22,2139,0.044217,0.530433,0.725902,-757.93,-146.78,-517.28
23,2239,0.038863,0.574986,0.706029,-103.93,249.22,0.72
24,2339,0.037882,0.614412,0.683443,54.07,137.22,71.72
25,2439,0.040729,0.647722,0.659796,-386.93,98.22,-254.28
26,2539,0.043625,0.672704,0.648118,-1196.94,-503.79,-1302.29
27,2649,0.039220,0.693352,0.636013,-1811.95,-729.80,-1826.30
28,2749,0.034816,0.701253,0.647385,-503.93,64.22,76.72
29,2849,0.034663,0.714324,0.644509,402.07,-316.78,-217.28
30,2949,0.027226,0.732263,0.623296,-429.93,152.22,74.72
31,3059,0.023010,0.742458,0.608689,-4513.93,-821.78,-32.28
32,3159,0.018347,0.738031,0.614638,-9564.93,1863.22,508.72
33,3259,-0.001749,0.707444,0.635552,-12536.94,3016.21,1894.71
34,3359,0.002135,0.669084,0.669021,-10988.94,166.21,152.71
35,3469,-0.003133,0.616887,0.719003,-9358.95,-909.80,-1748.30
36,3569,-0.020354,0.557596,0.755884,-6905.94,-936.79,-2294.29
37,3669,-0.035780,0.495278,0.794265,-2282.94,628.21,5.71
38,3769,-0.032559,0.456810,0.802315,-3615.94,-605.79,-581.29
39,3879,-0.025683,0.400346,0.827268,-3696.94,-744.79,-1687.29
40,3979,-0.038039,0.338233,0.871054,-3372.93,-617.78,-1463.28
41,4079,-0.026166,0.300709,0.881539,-48.93,330.22,1100.72
42,4189,-0.019828,0.262551,0.894736,-116.94,150.21,467.71
43,4289,-0.010156,0.228523,0.909286,132.05,-21.80,652.70
44,4389,0.004548,0.194564,0.918962,330.07,25.22,176.72
45,4489,0.030174,0.175441,0.922773,-205.95,108.20,509.70
46,4589,0.034635,0.152154,0.933227,47.06,-44.79,300.71
47,4699,0.038958,0.130127,0.950921,-152.93,254.22,292.72
48,4799,0.038585,0.112759,0.955688,3.07,179.22,112.72
49,4899,0.030816,0.102134,0.961717,86.05,54.20,125.70
50,4999,0.025220,0.088141,0.967776,-95.94,90.21,-35.29
1,0,0.001314,0.003194,1.000298,0.04,-7.81,-5.31
2,99,0.001883,0.006843,0.999709,-26.94,40.21,-9.29
3,199,0.000589,0.010348,0.999612,14.05,-28.80,-35.30
4,299,0.001962,0.013382,0.999382,2.06,-12.79,44.71
5,399,0.003788,0.014660,0.999535,4.05,10.20,59.70
6,499,0.010357,0.011682,0.999189,-11.95,52.20,84.70
7,599,0.012150,0.013838,0.998657,6.04,-2.81,137.69
8,699,0.016329,0.022976,0.998991,117.05,-209.80,663.70
9,799,0.013858,0.021003,1.001968,181.06,-99.79,272.71
10,899,0.019228,0.027511,1.002246,353.05,-74.80,17.70
11,999,-0.006531,0.016819,0.994663,402.04,-70.81,369.69
12,1109,-0.003523,0.015879,1.003708,1836.04,298.19,880.69
13,1209,-0.000142,0.016655,1.019161,5767.05,1413.20,1970.70
14,1309,-0.001864,0.039268,1.008180,5658.05,1162.20,3236.70
15,1419,0.001780,0.063617,1.000495,6772.03,-284.82,2131.68
16,1519,0.019655,0.108630,0.996727,6590.06,-604.79,1206.71
17,1619,0.030033,0.161978,0.936890,7258.05,-2582.80,-3219.30
18,1719,0.032153,0.209632,0.932739,11992.06,-1480.79,-3418.29
19,1829,0.017035,0.264035,0.924632,11611.05,805.20,-422.30
20,1929,0.019713,0.344189,0.854040,9607.06,1088.21,1258.71
21,2029,0.034001,0.421805,0.784258,803.07,-1000.78,431.72
22,2139,0.037485,0.476060,0.759368,-1222.95,349.20,-722.30
23,2239,0.030027,0.521316,0.742257,-705.96,33.19,-772.31
24,2339,0.022809,0.560021,0.726816,250.07,324.22,33.72
25,2439,0.022643,0.593855,0.710652,705.06,196.21,169.71
26,2539,0.020671,0.625745,0.689094,578.06,351.21,-131.29
27,2649,0.013905,0.649866,0.679302,8.05,-90.80,-73.30
28,2749,0.015404,0.671102,0.670191,41.06,-168.79,-5.29
29,2849,0.012650,0.690452,0.659408,-659.94,43.21,26.71
30,2949,0.008277,0.704794,0.652879,-703.95,22.20,110.70
31,3049,0.010016,0.715539,0.651321,-220.95,-245.80,-43.30
32,3159,0.008693,0.730897,0.633022,-1315.95,734.20,366.70
33,3259,0.007824,0.738861,0.626917,-2610.95,25.20,84.70
34,3359,0.008862,0.734003,0.646392,-2537.94,87.21,81.71
35,3469,-0.004757,0.733518,0.643975,-5101.95,3248.20,1061.70
36,3569,0.000457,0.718018,0.653439,-10223.94,-339.79,277.71
37,3669,0.009302,0.687374,0.669796,-12339.95,-467.80,-200.30
38,3769,0.012133,0.632946,0.715432,-11026.94,-417.79,-1448.29
39,3879,0.008075,0.557989,0.756859,-6936.95,-934.80,-1732.30
40,3979,0.029364,0.487812,0.813752,-4116.93,-1352.78,-3510.28
41,4079,0.028215,0.425709,0.844038,-4938.93,-812.78,-1896.28
42,4189,0.032768,0.347597,0.875220,69.05,509.20,872.70
43,4289,0.030613,0.293927,0.900515,282.04,-414.81,1102.69
44,4389,0.038176,0.249938,0.920588,-207.95,264.20,678.70
45,4489,0.015856,0.198448,0.958561,-351.94,409.21,-108.29
46,4589,0.006974,0.168689,0.965881,116.06,-104.79,-213.29
47,4699,-0.001620,0.142149,0.964687,100.05,139.20,128.70
48,4799,-0.024214,0.122977,0.989106,297.07,-81.78,213.72
49,4899,-0.019743,0.106279,0.992210,-42.93,61.22,-171.28
50,4999,-0.015064,0.095820,0.992779,85.05,-30.80,-305.30
1,0,0.000600,0.004110,1.000371,-3.95,7.20,0.70
2,99,0.000176,0.007823,0.999680,-1.96,0.19,24.69
3,199,0.000567,0.010082,0.999623,4.05,2.20,-0.30
4,299,0.000386,0.012423,0.999740,-12.96,-3.81,32.69
5,399,0.000306,0.014248,0.999638,-2.95,0.20,12.70
6,499,0.000311,0.015855,0.999386,-9.94,4.21,21.71
7,599,0.000022,0.016963,0.998971,-5.96,1.19,29.69
8,699,0.001699,0.018089,0.998672,-5.96,5.19,13.69
9,799,-0.004162,0.019229,0.996826,4.05,-5.80,-35.30
10,899,-0.002608,0.021553,0.996978,83.05,-32.80,119.70
11,999,0.000709,0.022943,0.997125,98.04,-89.81,-188.31
12,1109,-0.003906,0.028537,0.986648,578.05,-529.80,-1118.30
13,1209,-0.001896,0.028384,0.989572,91.05,63.20,-36.30
14,1309,0.002852,0.027870,0.994620,206.05,42.20,59.70
15,1409,0.002970,0.028294,0.992961,311.05,-225.80,-636.30
16,1509,0.003051,0.027427,1.004953,876.05,22.20,140.70
17,1619,0.010774,0.027569,1.022306,4040.04,1770.19,2206.69
18,1719,0.031951,0.044390,1.047054,8211.06,309.21,-901.29
19,1819,0.026477,0.077821,1.029363,9316.05,-4444.80,-4221.30
20,1919,0.017649,0.111768,1.017841,9399.05,-2177.80,-1896.30
21,2029,0.017250,0.157468,0.998672,12447.04,1071.19,221.69
22,2129,0.019620,0.224621,0.954198,12702.05,2183.20,699.70
23,2229,0.018578,0.302374,0.881551,9492.04,1940.19,525.69
24,2329,0.013571,0.387232,0.810572,5918.04,1945.19,537.69
25,2439,0.009755,0.461541,0.753353,1193.04,296.19,204.69
26,2539,0.014311,0.519137,0.719072,125.04,-274.81,-106.31
27,2639,0.016372,0.568423,0.690611,256.05,304.20,-131.30
28,2739,0.013601,0.612824,0.661402,184.04,203.19,-122.31
29,2849,0.012124,0.648424,0.640914,-124.95,130.20,39.70
30,2949,0.006401,0.679855,0.620844,-497.96,313.19,-43.31
31,3049,0.002105,0.704447,0.605524,-739.95,312.20,214.70
32,3159,0.003707,0.724856,0.596292,-270.97,-4.82,-3.32
33,3259,0.002927,0.744017,0.584179,-792.96,-172.81,113.69
34,3359,0.007520,0.754957,0.582763,-952.95,-448.80,-62.30
35,3459,0.003714,0.764622,0.581707,-1323.95,-230.80,-138.30
36,3559,0.011026,0.776627,0.579600,-3507.97,2695.18,142.68
37,3669,-0.015809,0.771799,0.559773,-9043.96,-82.81,46.69
38,3769,-0.016152,0.754987,0.585382,-8331.96,-643.81,64.69
39,3869,-0.021534,0.730956,0.609091,-10658.97,1264.18,857.68
40,3969,-0.022850,0.684583,0.634023,-9466.97,-87.82,-58.32
41,4079,-0.011571,0.622737,0.702200,-7369.96,-1263.81,-1894.31
42,4179,-0.002406,0.561982,0.757293,-8130.96,-477.81,-982.31
43,4279,-0.017540,0.478498,0.817838,-6091.96,490.19,350.69
44,4379,-0.020663,0.424218,0.840077,-4217.97,289.18,957.68
45,4489,-0.025057,0.356638,0.870735,-287.97,240.18,1030.68
46,4589,-0.019637,0.306355,0.886816,51.03,-20.82,-95.32
47,4689,-0.022189,0.263284,0.903707,5.04,4.19,227.69
48,4789,-0.021300,0.223415,0.915263,62.03,14.18,-6.32
49,4899,-0.022650,0.191486,0.928235,28.05,60.20,-49.30
50,4999,-0.025684,0.163284,0.938181,97.05,1.20,-311.30
1,0,0.012703,0.000850,0.999877,6.04,-177.81,462.69
2,99,0.009859,0.001847,0.999790,-6.98,-1.83,19.67
3,199,0.008119,0.003629,0.999424,-8.98,10.17,-6.33
4,299,0.006915,0.005290,0.999277,-2.97,-0.82,83.68
5,399,0.005433,0.006298,0.999702,-9.97,34.18,143.68
6,499,-0.003718,-0.005790,1.010591,-160.98,83.17,1161.67
7,599,-0.003202,-0.000849,1.008861,36.01,62.16,535.66
8,699,-0.006443,0.004377,1.005266,-28.97,-101.82,337.68
9,799,-0.004658,0.001347,1.005342,-66.99,79.16,1386.66
10,899,-0.005246,0.009741,1.000389,508.02,-470.83,-1380.33
11,999,-0.020668,0.000487,1.007513,2791.04,139.19,243.69
12,1109,-0.024000,0.002363,1.015308,6449.02,730.17,1952.67
13,1209,-0.013593,0.039131,0.998039,5624.01,584.16,2594.66
14,1309,-0.004363,0.084209,0.971000,2318.01,7.16,-64.34
15,1419,0.001102,0.100809,1.011866,10012.03,-388.82,-911.32
16,1519,-0.006795,0.158316,0.974844,13521.04,-2197.81,-1465.31
17,1619,0.007861,0.215545,0.946066,11885.02,-2385.83,-1511.33
18,1719,0.007978,0.274426,0.928233,10927.04,-1205.81,-1021.31
19,1829,0.004506,0.369794,0.842415,6670.02,1391.17,1090.67
20,1929,0.016203,0.444209,0.787560,695.03,693.18,727.68
21,2029,0.024407,0.503599,0.746977,-853.97,459.18,-493.32
22,2139,0.022151,0.552542,0.720903,-1024.96,168.19,-863.31
23,2239,0.013880,0.592715,0.701926,-416.98,-2.83,-365.33
24,2339,0.014448,0.625215,0.686474,205.03,42.18,83.68
25,2439,0.011727,0.654908,0.667810,202.02,181.17,20.67
26,2539,0.010457,0.681613,0.650754,-274.99,103.16,223.66
27,2649,0.011191,0.702682,0.638748,-743.97,-85.82,-43.32
28,2749,0.010844,0.718375,0.633175,-233.98,-212.83,-72.33
29,2849,0.012637,0.731806,0.629280,-653.98,-950.83,-341.33
30,2949,0.020002,0.744027,0.621905,-187.97,-392.82,-8.32
31,3059,0.021080,0.754727,0.613860,-1760.98,-266.83,-47.33
32,3159,0.019158,0.758585,0.613796,-2732.97,450.18,195.68
33,3259,0.015309,0.755383,0.624893,-2615.97,-45.82,44.68
34,3359,0.016378,0.755297,0.630096,-1655.96,1.19,194.69
35,3469,0.010492,0.753156,0.622745,-5747.98,3936.17,1161.67
36,3569,-0.001322,0.731194,0.623729,-10893.97,-658.82,-47.32
37,3669,0.011378,0.685463,0.657890,-12132.97,-755.82,-441.32
38,3769,0.014043,0.624381,0.714723,-11535.96,-100.81,-134.31
39,3879,0.018579,0.552448,0.748328,-6736.97,-394.82,-537.32
40,3979,0.024302,0.492056,0.785040,-2907.97,-469.82,-869.32
41,4079,0.018253,0.440155,0.813663,-2532.97,-343.82,-664.32
42,4189,0.015108,0.379687,0.840777,-2597.98,-19.83,-387.33
43,4289,0.009284,0.326203,0.867723,-1613.98,-106.83,1.67
44,4389,0.013637,0.280595,0.895370,-595.96,-294.81,-220.31
45,4489,0.014846,0.243164,0.912186,-1124.96,-108.81,-389.31
46,4589,0.008733,0.208803,0.928751,-108.97,124.18,746.68
47,4699,0.009524,0.176465,0.940853,0.02,40.17,96.67
48,4799,0.001499,0.153006,0.949529,96.03,-28.82,-320.32
49,4899,-0.003711,0.131180,0.963714,326.03,21.18,71.68
50,4999,-0.018192,0.117260,0.966965,101.02,4.17,-184.33
1,0,-0.001341,0.003816,0.999913,-6.97,1.18,1.68
2,99,-0.001438,0.006877,0.999840,6.03,-13.82,12.68
3,199,-0.001703,0.009351,0.999649,-2.97,12.18,-4.32
4,299,-0.002277,0.011801,0.999468,-14.99,0.16,20.66
5,399,-0.002800,0.014415,0.999150,0.02,-4.83,6.67
6,499,-0.003209,0.015739,0.998898,-10.98,27.17,22.67
7,599,-0.005900,0.018092,0.999160,2.02,2.17,36.67
8,699,-0.005808,0.021263,0.999712,-19.99,31.16,59.66
9,799,-0.006150,0.022971,0.996830,-79.97,-181.82,290.68
10,899,-0.006477,0.022407,0.997878,105.02,-21.83,-46.33
11,999,0.008167,0.025096,0.995729,578.01,-813.84,-1899.34
12,1109,0.006351,0.027437,0.996521,179.02,-307.83,-599.33
13,1209,-0.004696,0.021113,1.008730,1224.01,-254.84,-794.34
14,1309,-0.008373,0.017643,1.012607,3541.01,487.16,1232.66
15,1419,-0.002526,0.039723,1.002737,7239.01,-1432.84,-2117.34
16,1519,0.007516,0.072627,1.013739,11553.03,117.18,-529.32
17,1619,0.006530,0.113065,1.010566,15806.02,798.17,472.67
18,1719,0.013236,0.183839,0.968080,13188.02,-504.83,-370.33
19,1829,0.006778,0.273495,0.900565,6608.02,350.17,-47.33
20,1929,0.005518,0.351826,0.852405,2932.01,467.16,134.66
21,2029,0.006937,0.413831,0.823700,1308.01,593.16,372.66
22,2139,0.008675,0.470324,0.793278,2186.01,1036.16,546.66
23,2239,0.010280,0.524972,0.753099,1618.02,718.17,268.67
24,2339,0.009374,0.573126,0.717666,500.01,385.16,118.66
25,2439,0.006992,0.612079,0.692602,110.02,-51.83,-49.33
26,2539,0.006982,0.645849,0.670637,342.01,341.16,181.66
27,2649,0.005398,0.675542,0.648672,-409.99,-278.84,-126.34
28,2749,0.004675,0.697155,0.637930,-6.98,61.17,42.67
29,2849,0.006093,0.718181,0.623105,-237.98,290.17,143.67
30,2949,0.008927,0.736072,0.609716,-1257.00,570.15,235.65
31,3049,0.011447,0.743387,0.611683,-2181.98,614.17,338.67
32,3159,0.018385,0.744808,0.627510,-1619.99,-205.84,-9.34
33,3259,0.016044,0.750117,0.624300,-1191.97,-741.82,-313.32
34,3359,0.012900,0.755637,0.621938,-1064.98,-298.83,2.67
35,3469,0.007536,0.766775,0.594552,-6581.98,3811.17,1254.67
36,3569,-0.006472,0.746029,0.593759,-13498.99,2601.16,1405.66
37,3669,-0.009900,0.695161,0.640015,-15522.98,917.17,1773.67
38,3769,0.003939,0.632423,0.703795,-9997.98,-881.83,-514.33
39,3879,0.001348,0.568054,0.756855,-4752.99,-755.84,-2212.34
40,3979,-0.002869,0.513286,0.794559,-5481.98,-1520.83,-2438.33
41,4079,-0.007333,0.447928,0.838105,-4357.00,-522.85,-1732.35
42,4189,-0.016895,0.393875,0.860069,28.02,132.17,561.67
43,4289,-0.018907,0.349285,0.859475,-204.99,-97.84,722.66
44,4389,-0.008093,0.308124,0.878068,-42.98,-135.83,-328.33
45,4489,-0.010564,0.270153,0.894440,-475.99,-805.84,-282.34
46,4589,-0.004041,0.242858,0.910938,77.01,315.16,225.66
47,4699,-0.000785,0.215940,0.921940,87.01,256.16,210.66
48,4799,-0.017207,0.200567,0.919591,55.01,-459.84,-95.34
49,4899,-0.009010,0.182739,0.930907,41.01,57.16,-94.34
50,4999,-0.006912,0.169087,0.939390,-9.96,-109.81,-173.31
1,0,-0.001195,0.012441,0.998980,42.02,65.17,12.67
2,99,-0.001021,0.023564,0.998588,-64.99,-135.84,20.66
3,199,-0.001184,0.033092,0.998310,-9.00,-98.85,50.65
4,299,0.001149,0.040551,0.998550,-69.98,-121.83,27.67
5,399,0.003151,0.045865,0.998150,67.02,175.17,5.67
6,499,-0.000403,0.052396,0.996546,-32.98,-52.83,42.67
7,599,-0.000018,0.057966,0.997527,-41.99,54.16,104.66
8,699,-0.000039,0.062517,0.996895,22.01,121.16,70.66
9,799,0.018126,0.056754,1.000296,-953.99,-1955.84,187.66
10,899,0.026791,0.054035,1.004852,837.01,877.16,-255.34
11,999,0.026961,0.061959,1.005759,1004.03,128.18,-1002.32
12,1109,0.014342,0.058935,1.020683,3521.01,679.16,978.66
13,1209,0.003214,0.076250,1.014949,10639.02,-3426.83,-2446.33
14,1309,0.036180,0.117847,0.992094,14162.01,-1485.84,-1158.34
15,1419,0.028367,0.177869,0.947618,12881.01,-608.84,-727.34
16,1519,0.025919,0.252307,0.905858,12027.99,-272.86,-186.36
17,1619,0.026439,0.334970,0.859120,9382.01,2066.16,580.66
18,1719,0.014997,0.414737,0.788869,5080.02,1431.17,1314.67
19,1829,0.026585,0.485212,0.732066,891.01,427.16,350.66
20,1929,0.028305,0.541710,0.694331,-317.00,-18.85,-363.35
21,2029,0.027021,0.586859,0.673829,-215.98,-76.83,-134.33
22,2139,0.031257,0.625492,0.653710,61.01,182.16,107.66
23,2239,0.032441,0.660051,0.632233,18.01,154.16,-198.34
24,2339,0.032202,0.687137,0.617933,-86.99,25.16,-498.34
25,2439,0.030333,0.712999,0.602335,199.00,790.15,-870.35
26,2539,0.029605,0.735201,0.591311,253.01,361.16,68.66
27,2649,0.022485,0.756489,0.572016,67.99,739.14,-26.36
28,2749,0.011929,0.777642,0.548950,-1119.98,695.17,312.67
29,2849,0.013559,0.785515,0.550035,-2624.99,-489.84,534.66
30,2949,0.021243,0.801546,0.531933,-4914.99,169.16,169.66
31,3049,0.016971,0.779832,0.558184,-11421.98,3026.17,-892.33
32,3159,-0.000759,0.754784,0.578868,-12129.00,1875.16,475.66
33,3259,-0.012718,0.707381,0.605183,-12537.01,228.14,430.64
34,3359,-0.025427,0.643927,0.664447,-9176.00,-2959.84,-2202.34
35,3469,-0.032202,0.565619,0.728664,-5695.99,-1071.84,-1596.34
36,3569,-0.040652,0.504954,0.771493,-3225.99,-1560.84,-541.34
37,3669,-0.042323,0.438942,0.821613,459.02,35.17,641.67
38,3769,-0.029992,0.396344,0.834239,-988.01,-911.86,748.64
39,3879,-0.004277,0.341514,0.881026,-1484.99,-209.84,713.66
40,3979,0.001248,0.315947,0.891937,-843.00,-210.85,753.65
41,4079,0.012573,0.284785,0.906906,382.00,98.15,-310.35
42,4189,0.013886,0.255936,0.923493,864.01,1506.16,-115.34
43,4289,0.016778,0.234729,0.931477,103.01,135.16,180.66
44,4389,0.021690,0.214944,0.941265,139.00,481.15,94.65
45,4489,0.007263,0.202101,0.943324,198.02,192.17,747.67
46,4589,0.009775,0.186296,0.952471,75.01,184.16,-53.34
47,4699,0.004037,0.176614,0.955632,-232.99,-179.84,25.66
48,4799,0.002126,0.165126,0.961761,-351.00,-752.85,10.65
49,4899,0.004548,0.155837,0.967501,-419.00,-857.85,-61.35
50,4999,0.009958,0.144004,0.973204,-224.00,-449.85,-16.35
1,0,-0.001122,0.001436,0.999694,3.02,-2.83,-7.33
2,99,-0.003413,0.001905,0.999085,-7.00,-0.85,6.65
3,199,-0.004023,0.002323,0.998604,-5.99,13.16,6.66
4,299,-0.004963,0.002641,0.999038,8.99,5.14,-14.36
5,399,-0.006258,0.003570,0.999516,0.98,-7.87,56.63
6,499,-0.007797,0.007271,0.999813,-19.01,-70.86,-8.36
7,599,-0.006157,0.003954,0.998692,169.00,-42.85,-182.35
8,699,-0.002291,0.007323,0.994773,344.00,170.15,-614.35
9,799,-0.003693,0.002057,1.004717,735.99,70.14,-51.36
10,899,-0.009077,-0.010256,1.020163,5377.98,72.13,1322.63
11,999,-0.005140,0.017730,1.013335,6781.99,540.14,3213.64
12,1109,0.006777,0.053237,0.991747,3967.99,555.14,1721.64
13,1209,0.020330,0.087830,0.981252,8185.00,-1793.85,-4126.35
14,1309,0.010317,0.124449,0.995055,8753.99,-1304.86,-2649.36
15,1419,0.010045,0.169510,0.984193,12874.00,722.15,379.65
16,1519,0.006281,0.238244,0.940426,12033.99,183.14,260.64
17,1619,0.007384,0.321972,0.880958,8267.99,-461.86,-273.36
18,1719,0.012569,0.397554,0.821841,3274.99,911.14,378.64
19,1829,0.009580,0.463557,0.778276,868.00,-247.85,-48.35
20,1929,0.007807,0.521325,0.739010,624.97,40.12,57.62
21,2029,0.002711,0.570484,0.705910,175.99,48.14,0.64
22,2139,0.001622,0.612213,0.679679,-1.00,-147.85,-50.35
23,2239,0.001208,0.647116,0.657199,-139.02,-16.87,26.63
24,2339,0.000764,0.676014,0.639318,-211.01,-81.86,-29.36
25,2439,-0.000601,0.701749,0.622270,-277.02,29.13,60.63
26,2539,-0.002293,0.723038,0.607578,-354.02,-349.87,-197.37
27,2649,-0.001845,0.740181,0.598184,-211.01,-287.86,-150.36
28,2749,0.003718,0.753819,0.591664,-777.01,-1337.86,-677.36
29,2849,-0.001771,0.759607,0.597511,-495.01,-1161.86,-591.36
30,2949,0.003927,0.773793,0.582047,-921.01,-38.86,16.64
31,3059,-0.003608,0.782810,0.569451,-6471.02,3100.13,1852.63
32,3159,-0.011496,0.771560,0.562169,-14100.02,-575.87,-297.37
33,3259,-0.023638,0.727482,0.583903,-17973.02,60.13,295.63
34,3359,-0.030554,0.660426,0.637752,-11962.02,-142.87,-180.37
35,3469,-0.011511,0.583562,0.724485,-4338.02,-19.87,-1808.37
36,3569,-0.020630,0.534725,0.742563,-5126.01,546.14,566.64
37,3669,-0.019025,0.472559,0.776294,-4227.01,118.14,-1866.36
38,3769,-0.026302,0.403916,0.814853,-3596.01,111.14,-1414.36
39,3879,0.015540,0.335573,0.863705,-850.00,302.15,-1043.35
40,3979,0.008809,0.293465,0.881279,-69.01,-2.86,346.64
41,4079,0.007866,0.252291,0.902223,-151.00,-51.85,590.65
42,4189,0.005655,0.219856,0.913598,171.99,2.14,-139.36
43,4289,-0.001278,0.189320,0.917646,-1.01,45.14,100.64
44,4389,-0.011419,0.171311,0.922661,15.99,-607.86,-530.36
45,4489,-0.012257,0.151701,0.933882,41.01,60.16,191.66
46,4589,-0.015459,0.133274,0.942595,-387.01,-715.86,270.64
47,4699,-0.017760,0.116953,0.948702,45.00,137.15,117.65
48,4799,-0.017794,0.101669,0.956786,-10.01,-1.86,110.64
49,4899,-0.016687,0.090564,0.963657,2.98,-1.87,36.63
50,4999,-0.015911,0.080575,0.968582,-1.01,32.14,-29.36
1,0,-0.001690,0.004457,0.999272,34.99,-24.86,-50.36
2,99,-0.001114,0.004967,1.000100,47.98,18.13,-217.37
3,199,-0.003717,0.007470,1.000419,24.98,-8.87,-33.37
4,299,-0.004539,0.010275,1.000232,-9.02,62.13,-13.37
5,399,-0.005952,0.012128,1.000073,0.98,15.13,-28.37
6,499,-0.008563,0.014381,1.000232,-6.02,24.13,85.63
7,599,-0.011533,0.008751,1.008569,22.97,-113.88,454.62
8,699,-0.013837,0.013598,1.007361,-41.01,-22.86,210.64
9,799,-0.015576,0.017315,1.007342,80.99,15.14,263.64
10,899,-0.013575,0.024960,0.998701,615.98,299.13,-344.37
11,999,-0.021597,0.028822,0.992455,528.98,368.13,446.63
12,1109,-0.019829,0.025055,1.007434,1446.98,54.13,10.63
13,1209,-0.003750,0.032418,1.026538,5933.98,-876.87,-777.37
14,1309,-0.003212,0.055449,1.007602,5197.98,-2727.87,-2904.37
15,1419,-0.009456,0.064150,1.010989,10678.98,1038.13,103.63
16,1519,-0.016210,0.101299,0.998505,15673.98,1264.13,1103.63
17,1619,-0.008841,0.167172,0.952115,14560.98,2614.13,1558.63
18,1719,0.000829,0.248506,0.894355,10480.97,3528.12,1283.62
19,1829,-0.004227,0.329542,0.856208,5758.99,916.14,435.64
20,1929,-0.010960,0.413272,0.788774,2469.98,566.13,597.63
21,2029,-0.009706,0.481146,0.743045,300.99,-394.86,-140.36
22,2139,-0.010417,0.534152,0.715052,-50.01,-83.86,-26.36
23,2239,-0.012852,0.580691,0.687944,308.99,1.14,-27.36
24,2339,-0.014427,0.621786,0.661936,157.99,-229.86,-92.36
25,2439,-0.015620,0.657706,0.638401,85.99,-144.86,-68.36
26,2539,-0.016066,0.686206,0.620721,-186.02,-69.87,60.63
27,2649,-0.016262,0.712646,0.602782,-368.02,-179.87,-24.37
28,2749,-0.015770,0.733582,0.590317,-712.01,-341.86,-152.36
29,2849,-0.015150,0.749931,0.582817,-1168.01,-758.86,-315.36
30,2949,-0.014714,0.763755,0.573182,-1645.01,-294.86,-167.36
31,3059,-0.010865,0.769902,0.575100,-2242.01,-367.86,-237.36
32,3159,-0.015613,0.772930,0.578909,-2438.01,469.14,132.64
33,3259,-0.014815,0.772811,0.582915,-5130.02,3337.13,1116.63
34,3359,-0.022322,0.756305,0.595238,-11757.03,-966.87,-282.37
35,3469,0.007772,0.725227,0.604376,-16199.01,-811.86,-124.36
36,3569,0.009676,0.634376,0.703000,-15556.02,-1356.87,-2532.37
37,3669,0.015982,0.545031,0.800454,-5037.02,528.13,-720.37
38,3769,0.001897,0.489467,0.808491,-2561.02,-1114.87,81.63
39,3879,0.000086,0.436837,0.830648,-5842.02,-1765.87,-2373.37
40,3979,-0.032508,0.371794,0.843128,-75.04,-438.89,354.61
41,4079,-0.036866,0.317460,0.868860,-232.01,-1380.86,369.64
42,4189,-0.010633,0.275378,0.880790,227.98,165.13,179.63
43,4289,-0.010692,0.239022,0.898878,-45.01,-40.86,14.64
44,4389,-0.011805,0.207076,0.919378,-91.04,-82.89,-144.39
45,4489,-0.007238,0.180947,0.929682,38.99,35.14,147.64
46,4589,-0.006378,0.167362,0.932617,650.98,-156.87,-429.37
47,4699,-0.012477,0.149772,0.941227,141.98,455.13,298.63
48,4799,-0.004093,0.130774,0.951439,-22.00,-63.85,485.65
49,4899,-0.007806,0.116109,0.958673,13.00,-4.85,80.65
50,4999,-0.012427,0.104028,0.963247,-40.01,-87.86,77.64
1,0,-0.004822,0.003651,0.997697,-239.02,-519.87,-175.37
2,99,-0.012326,0.006021,0.996838,-26.03,-52.88,-71.38
3,199,-0.014128,0.007633,0.997976,15.97,10.12,-36.38
4,299,-0.016812,0.010981,0.996819,-11.04,0.11,0.61
5,399,-0.017264,0.013314,0.996934,-3.05,19.10,43.60
6,499,-0.016970,0.015388,0.996537,-53.04,-105.89,-13.39
7,599,-0.012764,0.017225,0.998031,11.98,-46.87,73.63
8,699,-0.010050,0.033966,0.986429,67.96,54.11,464.61
9,799,-0.019114,0.032174,0.988542,-112.02,21.13,161.63
10,899,-0.017627,0.035979,0.989075,166.96,54.11,-53.39
11,999,-0.016637,0.031284,0.995662,641.97,527.12,365.62
12,1109,-0.031726,0.017553,1.017539,5745.97,707.12,2698.62
13,1209,-0.031954,0.036899,1.007057,8979.97,542.12,4306.62
14,1309,-0.020942,0.083227,0.975131,7835.96,222.11,2516.61
15,1419,-0.016215,0.138608,0.950685,3301.96,-328.89,18.61
16,1519,-0.017414,0.170723,0.953582,3291.97,-531.88,-556.38
17,1619,-0.007887,0.204667,0.966903,9494.97,257.12,1268.62
18,1719,0.004422,0.267284,0.943472,10387.97,-902.88,-2019.38
19,1829,-0.004505,0.329005,0.906307,10400.97,-2449.88,-2412.38
20,1929,-0.018979,0.390348,0.857121,11692.96,-407.89,53.61
21,2029,-0.015004,0.479953,0.755565,7159.96,1510.11,985.61
22,2139,-0.002085,0.548885,0.689018,-542.04,298.11,-409.39
23,2239,-0.003225,0.598011,0.662336,-1170.02,-668.87,-416.37
24,2339,-0.004871,0.639529,0.637239,590.97,-262.88,-46.38
25,2439,-0.006179,0.679068,0.606001,805.98,-542.87,-155.37
26,2539,-0.004600,0.713280,0.577013,441.96,-426.89,-128.39
27,2649,-0.006022,0.741921,0.554662,80.96,-432.89,-116.39
28,2749,-0.004722,0.767127,0.535077,-414.03,-110.88,128.62
29,2849,0.000081,0.786610,0.521287,-1763.03,-820.88,-293.38
30,2949,-0.001531,0.801340,0.508613,-3247.04,-726.89,-345.39
31,3059,0.002190,0.805731,0.518678,-3579.03,-1064.88,-566.38
32,3159,-0.000251,0.805856,0.524395,-6515.03,2519.12,1150.62
33,3259,0.002673,0.796898,0.532074,-10694.04,3536.11,2166.61
34,3359,0.006312,0.782656,0.536789,-12139.03,2484.12,588.62
35,3469,0.009296,0.724462,0.590674,-12918.03,-807.88,-1649.38
36,3569,0.013241,0.641672,0.683681,-6800.05,-1963.90,-4462.40
37,3669,0.002661,0.586114,0.715020,-2255.03,586.12,-851.38
38,3769,0.003226,0.540483,0.724501,-5574.04,-628.89,-1588.39
39,3879,0.000483,0.476739,0.750907,-9542.04,-808.89,-1797.39
40,3979,0.104664,0.288834,0.945050,-1581.03,-4389.88,-1432.38
41,4079,0.091302,0.255221,0.951502,-262.01,-798.86,2557.64
42,4189,0.085804,0.211360,0.959990,32.96,-1112.89,-189.39
43,4289,0.069741,0.181805,0.960429,17.98,-219.87,-166.37
44,4389,0.058339,0.151977,0.967046,-11.04,49.11,57.61
45,4489,0.047440,0.128290,0.969888,23.98,18.13,101.63
46,4589,0.040409,0.108065,0.973786,4.97,1.12,138.62
47,4699,0.032876,0.087980,0.978107,13.95,-37.90,165.60
48,4799,0.037093,0.072922,0.980443,-0.03,0.12,53.62
49,4899,0.025297,0.061514,0.982758,26.96,-57.89,373.61
50,4999,0.023199,0.050097,0.985422,32.98,0.13,39.63
1,0,-0.000886,0.000025,0.999986,-2.04,2.11,1.61
2,99,-0.000338,-0.000650,1.000084,2.96,13.11,4.61
3,199,-0.001155,-0.002212,1.000057,2.95,16.10,-15.40
4,299,-0.001483,-0.002405,1.000180,6.95,10.10,0.60
5,399,-0.003043,-0.003264,0.999645,0.97,10.12,-77.38
6,499,-0.006567,-0.000204,0.999739,-4.04,26.11,65.61
7,599,-0.003757,-0.000533,1.000918,-43.03,10.12,-52.38
8,699,-0.002669,-0.001234,0.997855,55.97,106.12,-422.38
9,799,-0.001690,0.000789,0.998858,48.95,-37.90,49.60
10,899,-0.000748,0.004943,0.998612,103.95,25.10,-14.40
11,999,-0.013203,0.004923,0.990988,68.97,-0.88,-202.38
12,1109,-0.011851,-0.004122,1.007523,827.98,89.13,280.63
13,1209,-0.015097,-0.004156,1.007461,3182.96,-41.89,1400.61
14,1309,-0.015952,0.011452,1.005852,3979.96,-30.89,1824.61
15,1419,-0.000291,0.026220,1.013034,1957.95,-119.90,-78.40
16,1519,-0.001280,0.046701,1.010149,1744.96,11.11,243.61
17,1619,-0.005581,0.069677,0.994367,710.95,66.10,-344.40
18,1719,-0.005739,0.085032,0.991865,4577.96,-485.89,-3689.39
19,1829,-0.004757,0.101397,1.019640,10520.96,-248.89,-623.39
20,1929,0.001169,0.138123,1.003515,11948.96,800.11,625.61
21,2029,-0.001632,0.203068,0.960053,9698.96,587.11,-22.39
22,2139,0.002140,0.268489,0.922635,6766.97,693.12,-115.38
23,2239,-0.005035,0.338250,0.871512,5687.97,1657.12,667.62
24,2339,-0.009688,0.405128,0.826263,2115.96,229.11,-74.39
25,2439,-0.014852,0.457872,0.795821,-496.04,-13.89,-33.39
26,2539,-0.011862,0.501314,0.776245,-357.04,-114.89,-66.39
27,2649,-0.015051,0.537635,0.761326,186.97,-98.88,-53.38
28,2749,-0.013258,0.570668,0.744012,111.96,-166.89,-90.39
29,2849,-0.011752,0.597867,0.731914,-254.04,-212.89,-167.39
30,2949,-0.009300,0.621536,0.718097,-594.04,-352.89,-317.39
31,3059,-0.009926,0.640355,0.703459,-2013.04,-63.89,-326.39
32,3159,-0.008425,0.646335,0.717750,-2767.04,-354.89,-343.39
33,3259,-0.012222,0.651527,0.721932,-933.05,330.10,241.60
34,3359,-0.012044,0.658101,0.720708,-857.05,-129.90,-8.40
35,3469,-0.013302,0.664330,0.713167,-2861.05,-226.90,-230.40
36,3569,-0.012595,0.659554,0.718788,-3888.03,-559.88,-710.38
37,3669,-0.012012,0.645644,0.739404,-2695.04,823.11,-772.39
38,3769,-0.016461,0.629920,0.757404,-2161.04,941.11,-773.39
39,3879,-0.020114,0.621956,0.760070,-1370.03,839.12,-638.38
40,3979,-0.029134,0.605884,0.771069,-2181.05,302.10,-659.40
41,4079,-0.037002,0.590429,0.779815,-4135.04,-1311.89,-1362.39
42,4189,-0.054823,0.560740,0.792449,-8476.05,3335.10,2400.60
43,4289,-0.055817,0.515179,0.829097,-9522.04,754.11,2523.61
44,4389,-0.046956,0.461493,0.853089,-7871.03,-543.88,527.62
45,4489,-0.042318,0.405661,0.884285,-3729.03,130.12,-172.38
46,4589,-0.052896,0.361444,0.886723,-2941.03,-111.88,-1248.38
47,4699,-0.064359,0.201601,1.062297,-2328.02,-3178.87,721.63
48,4799,-0.071356,0.174664,1.049881,-571.03,-240.88,1826.62
49,4899,-0.062417,0.145120,1.043813,-318.03,-2437.88,208.62
50,4999,-0.053299,0.122901,1.039479,-542.04,-1214.89,79.61
1,0,-0.000062,-0.001788,0.999729,14.95,12.10,27.60
2,99,-0.006377,-0.001990,0.998492,-35.06,199.09,-419.41
3,199,-0.005171,-0.001630,0.999656,-22.05,8.10,-53.40
4,299,-0.004439,-0.000793,0.999968,16.96,49.11,-66.39
5,399,-0.003872,0.003526,0.999849,-74.05,-29.90,-473.40
6,499,0.000437,0.003314,0.998044,6.95,6.10,61.60
7,599,-0.001796,0.001999,0.998763,-25.06,-137.91,177.59
8,699,0.003666,-0.006955,0.993075,141.95,158.10,-231.40
9,799,-0.002915,-0.006565,0.993385,46.94,75.09,-270.41
10,899,0.003411,-0.009565,0.995297,321.95,436.10,745.60
11,999,0.006152,-0.013910,1.017118,1568.96,-71.89,-421.39
12,1109,-0.005380,-0.010645,1.019718,3260.94,-74.91,1804.59
13,1209,-0.006338,0.010294,1.005320,2987.95,-189.90,1596.60
14,1309,0.004109,0.024906,1.025126,4382.95,1076.10,1793.60
15,1419,0.023609,0.046774,1.036705,9634.94,-513.91,-2355.41
16,1519,0.010503,0.086438,1.020089,11449.96,-2442.89,-3603.39
17,1619,0.000112,0.135497,0.981923,12789.94,-2977.91,-3018.41
18,1719,-0.006265,0.204406,0.934102,13646.96,-558.89,-1396.39
19,1829,-0.011832,0.290921,0.865438,11733.96,875.11,-214.39
20,1929,-0.015832,0.386523,0.787244,5444.95,474.10,-91.40
21,2029,-0.017969,0.461961,0.733907,515.95,527.10,184.60
22,2139,-0.018046,0.522239,0.700052,-123.06,51.09,-68.41
23,2239,-0.019081,0.574830,0.669316,152.94,72.09,45.59
24,2339,-0.020254,0.620100,0.640773,213.96,40.11,36.61
25,2439,-0.021691,0.658469,0.616768,73.95,123.10,53.60
26,2539,-0.022839,0.691212,0.597719,233.95,133.10,134.60
27,2649,-0.023540,0.719079,0.583193,625.95,4.10,135.60
28,2749,-0.020071,0.741723,0.568539,725.94,-355.91,15.59
29,2849,-0.019906,0.766097,0.548118,316.93,968.08,468.58
30,2949,-0.022036,0.785606,0.529881,-292.06,-713.91,-159.41
31,3049,-0.021430,0.798582,0.523572,-617.05,-297.90,37.60
32,3159,-0.022159,0.813659,0.515700,-961.04,346.11,360.61
33,3259,-0.017322,0.824899,0.502711,-2232.05,333.10,137.60
34,3359,-0.014584,0.828612,0.501594,-3332.05,-646.90,-540.40
35,3469,-0.015187,0.825872,0.512290,-3772.05,-311.90,-563.40
36,3569,-0.016999,0.815596,0.537038,-3326.05,251.10,-111.40
37,3669,-0.018008,0.805800,0.559813,-1469.04,76.11,-108.39
38,3769,-0.015442,0.795752,0.576333,-3603.05,3558.10,876.60
39,3879,-0.007750,0.773405,0.570875,-12884.04,-2545.89,-2.39
40,3979,0.016788,0.724527,0.573120,-18576.05,-101.90,-666.40
41,4079,0.015764,0.622611,0.676304,-16699.05,-968.90,-2606.40
42,4189,-0.001091,0.515895,0.774520,-5388.07,1022.08,758.58
43,4289,-0.003920,0.461589,0.779141,1924.94,-871.91,384.59
44,4389,0.028869,0.407719,0.821410,-2600.06,-564.91,-1341.41
45,4489,0.019258,0.342210,0.863730,-1897.05,560.10,-868.40
46,4589,-0.001124,0.286288,0.889082,284.94,-442.91,-500.41
47,4699,-0.005797,0.258861,0.888987,-2141.05,568.10,894.60
48,4799,-0.008285,0.226904,0.901139,5.95,-172.90,404.60
49,4899,-0.009045,0.193644,0.912566,-93.04,-580.89,302.61
50,4999,0.019331,0.184398,0.912319,144.95,-2406.90,766.60
1,0,-0.000556,-0.000103,0.999986,-11.05,-1.90,32.60
2,99,-0.000389,-0.000301,0.999534,1.95,18.10,-13.40
3,199,-0.001546,0.000135,0.999187,-9.05,9.10,-5.40
4,299,-0.002749,0.000451,0.999020,-13.04,4.11,-7.39
5,399,-0.003479,0.000737,0.998951,-0.05,7.10,18.60
6,499,-0.002085,0.001054,0.999534,-15.05,36.10,77.60
7,599,-0.000315,-0.000251,0.998417,-27.05,3.10,71.60
8,699,-0.007104,0.002265,0.996187,-69.06,-269.91,225.59
9,799,0.002450,-0.001731,0.984238,-16.05,-7.90,430.60
10,899,-0.005578,-0.000677,0.987412,39.94,-17.91,-601.41
11,999,-0.007953,-0.003078,0.987235,171.94,161.09,-113.41
12,1109,0.005775,-0.001200,0.993493,810.93,812.08,-197.42
13,1209,0.011420,0.009533,1.000333,2190.94,-1026.91,-4098.41
14,1309,0.007795,0.004154,1.021893,6757.94,564.09,-1463.41
15,1419,-0.001841,0.022305,1.022513,12594.93,-996.92,-1311.42
16,1519,0.004818,0.059450,1.014745,11678.94,641.09,67.59
17,1619,0.008940,0.117501,0.997303,12713.93,1989.08,108.58
18,1719,0.004150,0.187974,0.966602,13239.94,1026.09,-30.41
19,1829,-0.005654,0.283490,0.895590,11322.95,799.10,1107.60
20,1929,-0.022263,0.367792,0.818934,6643.94,1217.09,1477.59
21,2029,-0.028434,0.451918,0.734385,2658.94,433.09,779.59
22,2139,-0.018005,0.521026,0.682715,-162.05,-320.90,104.60
23,2239,-0.018827,0.579988,0.643428,-169.04,68.11,-116.39
24,2339,-0.015314,0.628860,0.608496,-149.06,-184.91,120.59
25,2439,-0.011889,0.671446,0.578859,-154.06,-104.91,15.59
26,2539,-0.010772,0.708138,0.550793,128.96,296.11,-241.39
27,2649,-0.008028,0.738319,0.530012,245.94,598.09,-588.41
28,2749,-0.013094,0.767945,0.506892,127.92,601.07,-210.43
29,2849,-0.018370,0.781336,0.497330,-517.06,146.09,314.59
30,2949,-0.018771,0.801270,0.480815,-1159.06,1064.09,294.59
31,3059,-0.026455,0.817261,0.469982,-1869.07,345.08,513.58
32,3159,-0.020004,0.827338,0.472126,-3160.07,-775.92,278.58
33,3259,-0.004633,0.841983,0.465746,-6922.05,-1044.90,-281.40
34,3359,-0.005007,0.823009,0.494289,-10289.06,1704.09,-817.41
35,3469,-0.021732,0.780405,0.544570,-11288.06,1195.09,881.59
36,3569,-0.035032,0.737600,0.572550,-10442.05,1254.10,1314.60
37,3669,-0.023559,0.702809,0.611806,-8202.07,-1829.92,-1905.42
38,3769,-0.028309,0.647418,0.644550,-9991.07,738.08,-1067.42
39,3879,-0.035459,0.563605,0.711513,-10764.05,7.10,-753.40
40,3979,-0.044100,0.472607,0.774162,-6028.06,-808.91,-1319.41
41,4079,-0.044340,0.410786,0.800370,-723.05,-872.90,1048.60
42,4189,-0.025190,0.356846,0.833010,-2543.06,-425.91,1054.59
43,4289,-0.048867,0.261962,0.934564,-678.05,-1367.90,-831.40
44,4389,-0.045920,0.224505,0.941106,-64.05,-854.90,287.60
45,4489,-0.040742,0.191147,0.950768,-49.05,-741.90,70.60
46,4589,-0.025940,0.171124,0.953524,-168.06,-59.91,425.59
47,4699,-0.017717,0.148739,0.965883,27.95,124.10,427.60
48,4799,-0.015890,0.123597,0.965768,-6.05,4.10,-298.40
49,4899,-0.003443,0.104111,0.971529,33.93,-0.92,-298.42
50,4999,-0.003227,0.089013,0.974247,-0.07,34.08,-405.42
1,0,-0.001235,0.000116,0.999271,-0.08,-0.93,26.57
2,99,-0.000892,0.000672,0.999806,-15.06,15.09,41.59
3,199,-0.001626,0.000065,0.999875,-17.07,13.08,-24.42
4,299,-0.002470,0.001032,0.999898,4.95,2.10,20.60
5,399,-0.003022,0.001835,1.000301,33.93,17.08,-9.42
6,499,0.002019,0.004789,0.999381,-14.07,-16.92,-39.42
7,599,-0.001825,0.001916,1.000723,-28.07,20.08,40.58
8,699,-0.002493,0.003411,1.000948,-14.07,2.08,853.58
9,799,-0.000514,0.005835,1.002055,124.95,21.10,563.60
10,899,0.006477,0.009269,1.000542,278.93,-26.92,413.58
11,999,0.003191,0.009497,1.003211,42.96,72.11,803.61
12,1109,0.003694,0.006229,1.006194,416.94,791.09,1350.59
13,1209,0.001100,0.007187,1.014351,2450.93,-15.92,280.58
14,1309,0.006659,0.012542,1.033113,3511.94,751.09,2221.59
15,1419,0.001972,0.034617,1.033313,8728.93,-794.92,-881.42
16,1519,0.015896,0.066546,1.024548,13087.94,-2088.91,-1798.41
17,1619,-0.001236,0.116922,0.991262,11947.93,-1622.92,-1182.42
18,1719,-0.000966,0.176733,0.967289,13045.94,1688.09,99.59
19,1829,-0.009875,0.258591,0.905421,10084.93,2927.08,1342.58
20,1929,-0.013876,0.345602,0.831336,5084.92,2049.07,1274.57
21,2029,-0.007426,0.421832,0.778399,1625.95,572.10,197.60
22,2139,-0.011721,0.484046,0.741660,358.94,263.09,150.59
23,2239,-0.009787,0.537165,0.710780,186.94,-183.91,-42.41
24,2339,-0.008015,0.581163,0.686656,-398.06,-106.91,-51.41
25,2439,-0.011452,0.618727,0.666993,-20.04,-15.89,-0.39
26,2539,-0.009394,0.651516,0.648997,195.93,157.08,205.58
27,2649,-0.009585,0.680046,0.631998,-49.06,253.09,76.59
28,2749,-0.011762,0.702850,0.620808,-158.07,163.08,45.58
29,2849,-0.012697,0.723405,0.608166,-911.07,-115.92,203.58
30,2949,-0.011953,0.738240,0.600367,-1741.07,-170.92,288.58
31,3059,-0.005205,0.748049,0.596614,-880.05,363.10,266.60
32,3159,-0.003242,0.757833,0.589248,-1738.06,149.09,-5.41
33,3259,0.007180,0.758678,0.598771,-3670.07,-1223.92,-489.42
34,3359,0.013255,0.754013,0.622521,-1810.06,-386.91,-519.41
35,3469,0.006901,0.752117,0.626962,-1322.08,694.07,350.57
36,3569,0.007780,0.748327,0.635643,-1895.07,-24.92,57.58
37,3669,0.006825,0.742230,0.648644,-1839.08,-833.93,-389.43
38,3769,0.016451,0.735143,0.639480,-8401.07,-1001.92,-1083.42
39,3879,0.017985,0.695374,0.659376,-13387.07,3026.08,1006.58
40,3979,-0.007260,0.622312,0.723492,-11369.05,2605.10,3032.60
41,4079,-0.031832,0.571231,0.737177,-9731.09,-151.94,1897.56
42,4189,-0.029244,0.495568,0.788323,-4801.08,-275.93,-1326.43
43,4289,-0.037682,0.427905,0.820664,-6253.05,248.10,-2357.40
44,4389,-0.037200,0.355193,0.837498,-25.06,-833.91,-1160.41
45,4489,-0.052191,0.302927,0.858379,-47.07,-1256.92,271.58
46,4589,-0.044333,0.256249,0.879645,-76.07,-1078.92,-183.42
47,4699,-0.039430,0.222175,0.891037,2.93,-1335.92,-9.42
48,4799,-0.032736,0.190119,0.907019,45.94,-17.91,-43.41
49,4899,-0.023695,0.162559,0.918480,61.94,152.09,-186.41
50,4999,-0.036207,0.142466,0.932652,71.92,-37.93,-452.43
1,0,-0.000978,0.001251,0.997825,21.94,-32.91,-116.41
2,99,-0.002780,-0.000890,1.002568,-32.08,-19.93,6.57
3,199,-0.004513,-0.000988,1.001930,-13.08,3.07,2.57
4,299,-0.005620,-0.000797,1.000747,-2.07,26.08,-0.42
5,399,-0.005352,-0.000690,1.001463,-7.07,8.08,-65.42
6,499,-0.006865,0.000152,1.001668,-6.08,-10.93,-63.43
7,599,-0.006282,-0.000506,1.001129,-4.06,-1.91,32.59
8,699,-0.006226,0.001151,1.001805,-15.08,-31.93,62.57
9,799,-0.010005,-0.004381,1.008533,-95.06,-211.91,-19.41
10,899,0.004360,-0.006098,1.009710,264.93,49.08,490.58
11,999,-0.001813,-0.003603,1.010510,-0.07,-196.92,-233.42
12,1109,-0.009148,-0.003917,1.018569,1023.93,-436.92,-1478.42
13,1209,0.001171,0.001840,1.055026,4806.92,-679.93,-1725.43
14,1309,-0.002693,0.016457,1.037841,7831.92,-1864.93,-3017.43
15,1419,-0.010628,0.039006,1.052310,13205.92,-221.93,-1930.43
16,1519,-0.017172,0.084431,1.023428,16220.92,-240.93,-138.43
17,1619,-0.014000,0.153986,0.984377,14593.92,1151.07,742.57
18,1719,0.001386,0.248650,0.923900,13173.93,2304.08,726.58
19,1829,-0.010786,0.345648,0.836497,7993.94,915.09,856.59
20,1929,-0.007198,0.437710,0.756986,1948.94,97.09,697.59
21,2029,-0.002757,0.506678,0.708993,-124.08,198.07,-322.43
22,2139,-0.005775,0.562445,0.675781,-109.06,-116.91,-128.41
23,2239,-0.005978,0.610635,0.644583,532.93,111.08,-180.42
24,2339,-0.014098,0.652822,0.612664,238.93,-245.92,-7.42
25,2439,-0.017302,0.689744,0.586961,255.91,-34.94,61.56
26,2539,-0.017003,0.720907,0.565039,267.92,86.07,111.57
27,2649,-0.015156,0.748147,0.544484,-774.08,146.07,98.57
28,2749,-0.017102,0.773718,0.519742,-1495.08,474.07,174.57
29,2849,-0.016394,0.791827,0.504150,-2329.08,157.07,33.57
30,2949,-0.019601,0.809876,0.482310,-2534.07,571.08,-292.42
31,3059,-0.007971,0.813956,0.494360,-4688.08,-895.93,-940.43
32,3159,-0.008284,0.821031,0.495466,-6235.07,-288.92,-2072.42
33,3259,-0.040136,0.794800,0.503255,-14074.07,4917.08,1151.58
34,3359,-0.039671,0.752454,0.562829,-15653.06,965.09,1279.59
35,3469,-0.031055,0.683025,0.642672,-10848.07,-1746.92,-3525.42
36,3569,-0.052149,0.604435,0.707225,-7578.08,-1593.93,-2168.43
37,3669,-0.058837,0.537891,0.759513,-3982.08,-1037.93,-756.43
38,3769,-0.056775,0.479186,0.789602,-5713.07,-528.92,-1350.42
39,3879,-0.113782,0.384591,0.894902,-6619.07,115.08,-141.42
40,3979,-0.103204,0.329820,0.914479,-234.08,-1268.93,316.57
41,4079,-0.091576,0.279419,0.925022,32.94,-604.91,-364.41
42,4189,-0.084476,0.238226,0.936877,-64.08,-350.93,218.57
43,4289,-0.080529,0.199935,0.946404,-6.08,-925.93,-15.43
44,4389,-0.085614,0.171086,0.948459,-20.08,-1783.93,236.57
45,4489,-0.067451,0.142169,0.956176,61.93,-20.92,-13.42
46,4589,-0.058330,0.120173,0.962314,8.93,-15.92,22.58
47,4699,-0.047647,0.096293,0.970442,114.93,-0.92,-1.42
48,4799,-0.036937,0.078688,0.970925,89.94,-93.91,-220.41
49,4899,-0.028255,0.063778,0.974466,20.91,20.06,-192.44
50,4999,-0.024721,0.054382,0.976285,70.92,16.07,328.57
1,0,0.000139,-0.000525,0.998594,-32.07,18.08,168.58
2,99,0.000166,0.000311,0.999193,14.93,23.08,62.58
3,199,-0.000892,-0.000609,0.997780,51.93,18.08,-203.42
4,299,0.000112,-0.000640,0.997970,5.91,-11.94,92.56
5,399,-0.001341,0.000304,0.997454,-33.09,4.06,327.56
6,499,-0.000031,0.001894,0.997748,-79.07,-66.92,545.58
7,599,-0.002121,-0.012941,1.002759,-63.08,-53.93,-1416.43
8,699,-0.000988,-0.004457,1.002898,-38.10,63.05,735.55
9,799,-0.013903,-0.015245,1.012867,1223.93,34.08,-1021.42
10,899,-0.027517,-0.027986,1.032803,6035.92,225.07,3293.57
11,999,-0.030081,0.003501,1.039569,8551.91,-484.94,3791.56
12,1109,-0.003037,0.058151,1.040522,10656.92,851.07,3510.57
13,1209,0.016710,0.111544,1.009050,10247.92,-1975.93,-3202.43
14,1309,0.024907,0.168829,0.994732,10861.90,-1986.95,-3621.45
15,1419,0.023488,0.226988,0.964783,13357.92,-254.93,-2255.43
16,1519,0.021129,0.302919,0.907355,12949.92,1362.07,-278.43
17,1619,0.021138,0.401371,0.802475,8247.92,793.07,370.57
18,1719,0.016622,0.481247,0.736526,1825.92,88.07,124.57
19,1829,0.008829,0.546816,0.684260,1021.91,415.06,179.56
20,1929,0.006874,0.603374,0.639083,538.92,228.07,193.57
21,2029,0.004407,0.652620,0.598248,105.92,-7.93,26.57
22,2139,0.002951,0.693673,0.564911,-48.08,-85.93,-49.43
23,2239,0.003141,0.727928,0.538259,29.93,9.08,4.58
24,2339,0.004402,0.756623,0.516667,115.91,15.06,-24.44
25,2439,0.003843,0.781380,0.496940,-10.08,132.07,36.57
26,2539,0.001959,0.802753,0.480795,-542.09,578.06,234.56
27,2649,0.000650,0.821030,0.464673,-664.08,-188.93,-11.43
28,2749,0.010103,0.830871,0.460088,-2253.07,-3724.92,-1564.42
29,2849,0.005028,0.843283,0.450423,-2513.07,-406.92,-320.42
30,2949,0.006206,0.852587,0.441731,-4028.09,14.06,-368.44
31,3059,0.003784,0.850956,0.440038,-9052.07,-2866.92,-1659.42
32,3159,-0.011860,0.820053,0.489411,-9741.07,4804.08,1037.58
33,3259,-0.041126,0.779833,0.539032,-9964.09,3900.06,4479.56
34,3359,-0.018724,0.764964,0.561965,-9407.08,-973.93,1515.57
35,3469,-0.013634,0.724016,0.569245,-18212.08,-357.93,-3055.43
36,3569,-0.009290,0.610769,0.662463,-11415.08,962.07,-4344.43
37,3669,-0.031946,0.511689,0.732286,-1253.08,1713.07,1028.57
38,3769,-0.041371,0.457225,0.759978,-1095.08,-2537.93,1005.57
39,3879,-0.021953,0.401355,0.796534,-3001.08,-992.93,40.57
40,3979,-0.002335,0.337477,0.831306,-1815.07,174.08,-445.42
41,4079,-0.012082,0.282650,0.851285,5.91,-577.94,-346.44
42,4189,-0.006359,0.241961,0.873486,-31.08,5.07,264.57
43,4289,-0.007189,0.205984,0.891588,14.93,25.08,1.58
44,4389,-0.005130,0.176045,0.909263,43.92,-14.93,-33.43
45,4489,-0.004753,0.142869,0.930732,43.92,-76.93,-310.43
46,4589,0.000767,0.119082,0.948304,85.90,-52.95,73.55
47,4699,0.004471,0.101812,0.956465,25.92,-2.93,-266.43
48,4799,0.005513,0.086820,0.963401,50.91,29.06,-328.44
49,4899,0.004550,0.075378,0.969188,159.92,227.07,-248.43
50,4999,0.006021,0.066219,0.973887,13.93,91.08,-124.42
1,0,0.000248,0.001343,1.000113,-2.08,-7.93,4.57
2,99,0.000679,0.002630,0.999423,2.92,4.07,0.57
3,199,0.000331,0.004054,0.999714,-7.08,6.07,39.57
4,299,0.000841,0.004825,0.999541,-20.08,-10.93,106.57
5,399,-0.008907,0.007201,1.000108,22.90,48.05,51.55
6,499,0.012983,-0.003523,1.003226,27.89,-50.96,212.54
7,609,-0.001423,-0.001872,1.004082,-22.09,-12.94,-44.44
8,709,-0.003269,-0.004881,0.999683,208.91,331.06,2089.56
9,809,-0.000718,-0.006542,1.002188,91.91,19.06,838.56
10,909,0.007566,-0.008815,1.000911,819.91,1367.06,1936.56
11,1009,-0.014891,-0.014591,1.023593,3661.90,2368.05,4303.55
12,1119,0.000060,0.001903,1.047596,9111.90,2381.05,5320.55
13,1219,0.005554,0.043097,1.010065,12017.90,-4214.95,-3927.45
14,1319,0.009107,0.100047,0.974794,13439.90,-1048.95,-2480.45
15,1429,-0.029364,0.172113,0.941170,12754.91,59.06,-766.44
16,1529,-0.042216,0.246423,0.913761,11708.91,771.06,178.56
17,1629,-0.041147,0.336907,0.841996,9778.91,1392.06,914.56
18,1729,-0.036650,0.430993,0.756917,2557.91,802.06,742.56
19,1839,-0.033944,0.505089,0.701116,-798.09,-74.94,-291.44
20,1939,-0.036221,0.562467,0.667418,-797.09,-160.94,-114.44
21,2039,-0.035448,0.611349,0.638940,-129.10,13.05,31.55
22,2149,-0.032043,0.651213,0.613525,-59.09,26.06,10.56
23,2249,-0.028764,0.686874,0.587125,-632.08,68.07,62.57
24,2349,-0.026326,0.714641,0.571661,-1818.10,-405.95,-159.45
25,2449,-0.025241,0.737858,0.557216,-1892.08,-461.93,-193.43
26,2549,-0.025455,0.754663,0.551512,-2533.10,-1106.95,-299.45
27,2659,-0.022451,0.762832,0.556936,-2102.10,-976.95,-294.45
28,2759,-0.023981,0.771917,0.562846,-1229.10,137.05,109.55
29,2859,-0.025958,0.783595,0.558403,-1075.09,300.06,258.56
30,2959,-0.018484,0.786508,0.554132,-4546.08,-2424.93,-555.43
31,3069,-0.021597,0.772359,0.558321,-11087.08,3005.07,299.57
32,3169,-0.027136,0.741856,0.569919,-14016.09,1707.06,237.56
33,3269,-0.033565,0.678960,0.640349,-10536.07,-1571.92,-5.42
34,3369,-0.029162,0.617936,0.690382,-8784.09,-291.94,439.56
35,3479,-0.033054,0.558467,0.724908,-5266.09,138.06,-682.44
36,3579,-0.035099,0.496198,0.762348,-6105.11,440.04,213.54
37,3679,-0.042440,0.425162,0.810853,-3653.08,8.07,679.57
38,3779,-0.033446,0.366026,0.825935,762.91,-822.94,14.56
39,3889,-0.036420,0.324073,0.843644,-131.09,-677.94,-93.44
40,3989,-0.028201,0.284532,0.871257,66.90,-632.95,83.55
41,4089,-0.024931,0.250537,0.891213,-385.08,408.07,-268.43
42,4199,-0.024477,0.218364,0.906052,-127.09,68.06,-168.44
43,4299,-0.020027,0.202057,0.913556,-718.10,510.05,268.55
44,4399,-0.035434,0.169392,0.929419,73.89,-620.96,390.54
45,4499,-0.022235,0.170722,0.889087,-4832.10,196.05,4295.55
46,4599,-0.036596,0.144241,0.911532,-151.09,48.06,-1120.44
47,4709,-0.025128,0.123031,0.924916,5.91,8.06,109.56
48,4809,-0.017229,0.103044,0.935926,60.91,40.06,-324.44
49,4909,-0.016136,0.087025,0.944753,29.90,29.05,-439.45
50,5009,-0.015189,0.073959,0.953483,7.90,16.05,-93.45
1,0,0.000101,-0.000910,0.999308,-11.10,-7.95,6.55
2,99,0.000260,-0.001354,0.998920,-6.11,4.04,24.54
3,199,0.000085,-0.001841,0.999196,-8.10,4.05,3.55
4,299,-0.000651,-0.003006,0.999228,-31.11,-9.96,69.54
5,399,0.000115,-0.003960,0.999274,-36.11,0.04,82.54
6,499,-0.001064,-0.001877,0.997280,23.90,163.05,-834.45
7,599,0.010238,-0.000052,0.993572,-68.11,-173.96,1832.54
8,699,0.019369,-0.001705,0.994759,230.90,441.05,-320.45
9,799,-0.006049,-0.009812,0.996739,49.89,66.04,-1725.46
10,899,-0.009710,-0.014176,1.007925,1767.90,825.05,1015.55
11,999,-0.006431,-0.008162,1.022212,5333.90,-243.95,-1123.45
12,1109,-0.019263,0.015571,1.015258,8772.90,-684.95,-4017.45
13,1209,-0.019128,0.027926,1.026962,14214.91,861.06,-857.44
14,1309,-0.027749,0.081457,0.990822,18303.89,620.04,570.54
15,1419,-0.017058,0.169384,0.923373,15007.89,2628.04,2486.54
16,1519,-0.011817,0.268970,0.837568,11592.89,2301.04,900.54
17,1619,-0.000294,0.361546,0.770420,4670.89,938.04,168.54
18,1719,-0.011354,0.438368,0.720266,2545.90,-76.95,55.55
19,1829,-0.010447,0.511797,0.666465,962.90,65.05,117.55
20,1929,-0.011598,0.573790,0.623536,179.90,26.05,112.55
21,2029,-0.009648,0.625276,0.589775,-194.10,19.05,-26.45
22,2139,-0.011230,0.667263,0.565783,2.90,62.05,-21.45
23,2239,-0.009151,0.703666,0.542754,25.90,-258.95,-82.45
24,2339,-0.010863,0.735029,0.522465,-207.10,47.05,-42.45
25,2439,-0.010982,0.762769,0.502802,-669.10,627.05,193.55
26,2539,-0.012951,0.786988,0.483873,-1630.11,606.04,68.54
27,2649,-0.018103,0.805761,0.471940,-2727.11,-310.96,-315.46
28,2749,-0.021348,0.815292,0.471849,-3074.13,-939.98,-599.48
29,2849,-0.016836,0.817021,0.486567,-3892.08,-1857.93,-749.43
30,2949,-0.020051,0.817227,0.498033,-3382.12,-2223.97,-1116.47
31,3059,-0.021794,0.814326,0.501390,-7777.11,-1538.96,-1.46
32,3159,-0.028989,0.775221,0.544049,-12880.10,3195.05,1571.55
33,3259,-0.030454,0.721108,0.604389,-12576.10,1360.05,3356.55
34,3359,-0.018113,0.664527,0.670197,-8065.12,-1106.97,1250.53
35,3469,-0.007696,0.619749,0.700225,-6898.11,-1011.96,-867.46
36,3569,-0.018837,0.563779,0.713353,-6096.11,920.04,-1355.46
37,3669,-0.010746,0.491046,0.767724,-5876.09,383.06,-306.44
38,3769,-0.010223,0.411920,0.823534,-2628.10,-63.95,195.55
39,3879,-0.011097,0.359568,0.849129,-629.10,-710.95,1007.55
40,3979,0.001490,0.320671,0.866471,-140.11,-861.96,618.54
41,4079,0.007044,0.278581,0.886943,-611.13,196.02,-98.48
42,4189,0.007919,0.247914,0.898082,-106.12,-2.97,94.53
43,4289,0.009707,0.219540,0.913831,-1454.09,592.06,517.56
44,4389,0.013442,0.088213,1.075130,-1517.11,-3711.96,-1121.46
45,4489,0.026029,0.080626,1.078292,2.89,53.04,-39.46
46,4589,0.025741,0.066468,1.066570,0.88,56.03,-214.47
47,4699,0.020772,0.053628,1.056057,20.89,34.04,-106.46
48,4799,0.012191,0.041946,1.046205,37.90,26.05,-39.45
49,4899,0.004604,0.037344,1.038014,151.88,15.03,1001.53
50,4999,0.004766,0.032498,1.032096,-18.10,19.05,-118.45
1,0,0.000266,-0.002027,1.000461,-22.12,7.03,-60.47
2,99,0.000162,-0.002578,1.000560,-12.11,11.04,-34.46
3,199,-0.000200,-0.002919,1.000095,1.90,13.05,-17.45
4,299,0.000095,-0.003318,0.999681,-9.12,7.03,2.53
5,399,-0.000093,-0.002522,1.000135,-4.11,-7.96,24.54
6,499,-0.000857,-0.001937,0.999642,-79.11,23.04,218.54
7,599,-0.001378,-0.002264,0.998966,-38.11,18.04,150.54
8,699,-0.001326,-0.003329,0.999106,-48.11,17.04,144.54
9,799,0.001116,-0.003483,0.998786,-28.11,63.04,72.54
10,899,0.005389,-0.003157,0.995401,-110.11,-275.96,2195.54
11,999,0.011018,-0.007146,0.998401,87.90,-106.95,-69.45
12,1109,0.014868,-0.003688,1.002032,492.89,642.04,41.54
13,1209,0.014497,-0.008110,1.008615,2714.90,838.05,1424.55
14,1309,0.032235,0.011917,1.025545,5392.89,-489.96,-539.46
15,1419,0.023784,0.028995,1.027631,8252.89,289.04,-2376.46
16,1519,0.003985,0.044793,1.021677,14184.90,38.05,-583.45
17,1619,-0.011984,0.101525,0.983071,15662.90,-2096.95,-486.45
18,1719,-0.007339,0.174284,0.928064,13052.90,676.05,1715.55
19,1829,0.006644,0.268758,0.864114,11461.88,1972.04,-44.46
20,1929,-0.001961,0.361018,0.786868,7519.89,-944.96,-1702.46
21,2029,0.000082,0.448137,0.727563,1390.89,-1337.96,-898.46
22,2139,-0.005871,0.509791,0.704198,-381.11,375.04,4.54
23,2239,-0.009284,0.563442,0.672913,471.89,87.04,243.54
24,2339,-0.012441,0.611408,0.642017,298.89,-13.96,149.54
25,2439,-0.011720,0.651172,0.616836,100.88,214.03,-68.47
26,2539,-0.007792,0.682261,0.599313,146.88,434.03,-441.47
27,2649,-0.029502,0.719215,0.576784,433.89,-310.96,-179.46
28,2749,-0.030945,0.743101,0.560363,251.89,460.04,304.54
29,2849,-0.034295,0.764594,0.543346,-315.10,-54.95,248.55
30,2949,-0.036594,0.780721,0.531373,-821.11,19.04,371.54
31,3059,-0.035490,0.796974,0.517973,-1309.11,168.04,111.54
32,3159,-0.031164,0.807768,0.507608,-3709.12,244.03,-38.47
33,3259,-0.028256,0.806743,0.520129,-4328.12,-887.97,-613.47
34,3359,-0.030472,0.803803,0.540496,-5169.12,-1503.97,-172.47
35,3469,-0.026955,0.798375,0.536567,-10849.12,4072.03,1629.53
36,3569,-0.039821,0.762761,0.549505,-13958.11,706.04,2448.54
37,3669,-0.022504,0.709985,0.618420,-12260.11,-874.96,-200.46
38,3769,-0.025839,0.642787,0.671119,-6333.11,-888.96,-2112.46
39,3879,-0.033471,0.579828,0.706154,-2356.11,-383.96,-1079.46
40,3979,-0.035289,0.527118,0.727694,-3337.11,-1123.96,-1606.46
41,4079,-0.023742,0.476510,0.747962,-8282.11,-506.96,-881.46
42,4189,-0.058934,0.412382,0.802324,-136.09,-1422.94,778.56
43,4289,-0.043530,0.356737,0.836446,-248.11,-830.96,2289.54
44,4389,-0.034464,0.297867,0.863015,53.88,-917.97,-250.47
45,4489,-0.032361,0.251214,0.885269,15.89,16.04,88.54
46,4589,-0.030079,0.213757,0.901401,24.89,15.04,107.54
47,4699,-0.020065,0.180875,0.915901,45.89,-49.96,92.54
48,4799,-0.013017,0.152046,0.927915,6.89,71.04,-181.46
49,4899,-0.009829,0.128274,0.939793,-45.12,179.03,-735.47
50,4999,-0.011934,0.101952,0.949011,309.89,-272.96,-703.46
1,0,0.001035,-0.000379,1.000571,-14.11,2.04,7.54
2,99,0.001346,-0.000976,0.999262,-50.13,36.02,101.52
3,199,0.000897,-0.002857,0.998515,-9.13,3.02,18.52
4,299,0.001266,-0.003797,0.998283,-20.11,-13.96,64.54
5,399,0.001158,-0.004724,0.998470,-17.13,-9.98,78.52
6,499,0.000902,-0.004962,0.998959,-20.13,2.02,371.52
7,599,0.005720,-0.013093,0.993570,-42.11,54.04,-0.46
8,699,0.007105,-0.015940,0.994025,-79.11,-15.96,94.54
9,799,0.000024,-0.019678,0.995291,-28.13,34.02,106.52
10,899,-0.013245,-0.019046,0.996513,19.88,83.03,1194.53
11,999,-0.008247,-0.022630,0.997442,36.87,163.02,-72.48
12,1109,-0.014307,-0.024229,1.012221,2119.87,1565.02,2741.52
13,1209,-0.010193,-0.018832,1.047817,7958.86,25.01,279.51
14,1309,-0.017792,0.014888,1.031419,10069.87,-2045.98,-3580.48
15,1419,-0.014400,0.053510,1.035389,11232.88,-859.97,-1884.47
16,1519,-0.017119,0.101556,1.026586,12888.88,-338.97,-1214.47
17,1619,-0.020072,0.164239,0.999969,12171.87,1782.02,1229.52
18,1719,-0.025896,0.248501,0.925783,13411.88,2420.03,1440.53
19,1829,-0.013214,0.343378,0.834526,4929.86,127.01,2471.51
20,1929,-0.004924,0.428949,0.769665,2836.88,-1855.97,-1017.47
21,2029,-0.012654,0.495056,0.733759,-23.13,-362.98,-588.48
22,2139,-0.010510,0.553169,0.692729,86.87,-259.98,119.52
23,2239,-0.008906,0.600955,0.663475,-58.12,110.03,-88.47
24,2339,-0.007067,0.641810,0.635624,134.86,425.01,-366.49
25,2439,-0.011033,0.677874,0.611585,2.86,299.01,-228.49
26,2539,-0.013215,0.706770,0.593989,-100.13,-118.98,-34.48
27,2649,-0.009063,0.733676,0.574511,-54.12,661.03,388.53
28,2749,-0.013224,0.768137,0.541749,1499.88,-2161.97,-823.47
29,2849,-0.017439,0.790159,0.520951,-576.13,-304.98,-180.48
30,2949,-0.020289,0.804190,0.508620,-1576.13,-972.98,-550.48
31,3059,-0.021009,0.811868,0.516393,-1943.13,-878.98,-527.48
32,3159,-0.026161,0.815484,0.522873,-1100.12,-254.97,-199.47
33,3259,-0.025469,0.820003,0.528143,-853.14,-242.99,-34.49
34,3359,-0.025741,0.824541,0.516325,-1487.12,-44.97,-242.47
35,3469,-0.028299,0.824900,0.509924,-9671.14,1350.01,-316.49
36,3569,-0.033219,0.791148,0.553501,-12509.13,771.02,538.52
37,3669,-0.038902,0.749422,0.590852,-9881.13,138.02,1022.52
38,3769,-0.021632,0.701796,0.628113,-12154.13,-265.98,-443.48
39,3879,-0.013599,0.626250,0.714441,-5730.13,-890.98,-4029.48
40,3979,-0.029733,0.564800,0.733804,-3502.13,-911.98,-1381.48
41,4079,-0.048774,0.507661,0.763317,-5106.12,52.03,80.53
42,4189,-0.050549,0.447576,0.788240,-6222.12,-924.97,851.53
43,4289,-0.040138,0.383942,0.829107,-5636.12,-305.97,-374.47
44,4389,-0.060915,0.326722,0.842787,31.87,-619.98,101.52
45,4489,-0.043877,0.275777,0.868167,-93.13,-67.98,657.52
46,4589,-0.032636,0.234269,0.888311,-43.14,-112.99,592.51
47,4699,-0.020097,0.192816,0.910579,-54.14,-7.99,41.51
48,4799,-0.017238,0.163789,0.922859,43.87,-20.98,-111.48
49,4899,-0.009186,0.136681,0.934342,58.89,36.04,323.54
50,4999,-0.011938,0.113986,0.942912,8.88,50.03,-185.47
1,0,-0.000174,-0.000215,0.999326,-24.12,-17.97,0.53
2,99,-0.000469,-0.001166,0.999173,-11.14,2.01,-8.49
3,199,-0.001415,-0.000730,0.999154,-8.12,8.03,14.53
4,299,-0.002310,-0.000414,0.998918,-22.12,0.03,39.53
5,399,0.000791,-0.001739,0.998424,17.87,-10.98,267.52
6,499,0.007054,-0.003926,0.997748,-158.13,71.02,-109.48
7,599,0.007469,0.000476,0.999737,58.87,258.02,41.52
8,699,0.001377,-0.001422,0.997124,10.86,227.01,257.51
9,799,0.000538,-0.008747,0.998858,272.87,521.02,1132.52
10,899,0.010848,-0.005233,1.002530,-21.15,145.00,1716.50
11,999,0.013423,-0.005030,1.007298,78.86,273.01,689.51
12,1109,0.002006,-0.004582,1.011077,503.85,151.00,1173.50
13,1209,-0.015187,-0.004586,1.021101,3482.87,-53.98,2157.52
14,1309,-0.017093,0.005537,1.045533,7550.87,840.02,3305.52
15,1419,0.015509,0.039483,1.047458,10681.87,929.02,-2390.48
16,1519,-0.030498,0.075021,1.026024,9593.86,-1326.99,-4319.49
17,1619,-0.033623,0.119638,1.039848,14386.87,-1992.98,-1933.48
18,1719,-0.052741,0.177851,1.013018,16065.86,1080.01,629.51
19,1829,-0.057657,0.267761,0.929348,14037.87,690.02,1517.52
20,1929,-0.030323,0.374160,0.822285,6467.86,311.01,1471.51
21,2029,-0.024539,0.462493,0.735585,-16.13,262.02,166.52
22,2139,-0.027129,0.527633,0.691242,-1084.12,-113.97,-48.47
23,2239,-0.025449,0.583753,0.655326,-75.12,252.03,33.53
24,2339,-0.024534,0.631712,0.620970,-14.13,172.02,56.52
25,2439,-0.022640,0.672000,0.593563,-302.13,285.02,45.52
26,2539,-0.021799,0.706465,0.568508,-531.14,97.01,6.51
27,2649,-0.021688,0.735266,0.548274,-910.14,100.01,-61.49
28,2749,-0.025915,0.759270,0.530782,-1682.14,25.01,-230.49
29,2849,-0.026706,0.777074,0.521627,-1692.13,-485.98,-447.48
30,2949,-0.027581,0.790761,0.516756,-1768.14,-1218.99,-704.49
31,3059,-0.025578,0.797853,0.521167,-1531.15,-298.00,-448.50
32,3159,-0.023051,0.800824,0.527608,-3673.15,3324.00,359.50
33,3259,-0.038298,0.812303,0.519386,-3840.13,900.02,333.52
34,3359,-0.034357,0.799777,0.535836,-6010.13,-3045.98,-148.48
35,3469,-0.024892,0.785467,0.555018,-6059.14,-1478.99,-875.49
36,3569,-0.025526,0.755927,0.595034,-5279.14,752.01,-118.49
37,3669,-0.034963,0.725087,0.627364,-3712.14,-180.99,196.51
38,3769,-0.017515,0.702901,0.644591,-5304.14,-1146.99,159.51
39,3879,-0.015227,0.674961,0.666063,-9664.14,-924.99,-1314.49
40,3979,-0.017018,0.619644,0.719635,-9496.13,289.02,-1529.48
41,4079,-0.026029,0.555414,0.764531,-5699.13,650.02,-180.48
42,4189,-0.020376,0.499005,0.790754,-5387.12,-334.98,201.52
43,4289,-0.005922,0.437507,0.828626,-4890.13,-767.98,-1028.48
44,4389,-0.017311,0.371776,0.865285,-166.13,-564.98,-943.48
45,4489,-0.004543,0.335900,0.874729,-495.13,-580.98,954.52
46,4589,0.000505,0.292148,0.891984,-2165.14,-393.99,-815.49
47,4699,-0.005055,0.252616,0.908995,-913.13,72.02,-302.48
48,4799,-0.008170,0.224726,0.911626,-1632.13,205.02,1026.52
49,4899,-0.009297,0.183808,0.886946,858.88,612.03,-797.47
50,4999,-0.013406,0.152378,0.906452,-8.14,22.01,5.51
1,0,-0.000412,-0.000691,0.999454,-31.13,-22.98,19.52
2,99,-0.001221,-0.000454,0.999648,-17.14,-18.99,28.51
3,199,-0.002622,0.000791,0.999558,-7.13,7.02,-8.48
4,299,-0.000261,-0.000733,0.999005,-74.13,-16.98,39.52
5,399,-0.001128,-0.000582,0.998699,-101.14,22.01,116.51
6,499,-0.002544,0.000023,0.999520,73.86,156.01,233.51
7,599,-0.007866,0.005005,1.000693,-140.14,-993.99,93.51
8,699,-0.004169,-0.001802,0.998102,-18.13,-207.98,1121.52
9,799,-0.003132,-0.000446,0.997108,60.86,75.01,1058.51
10,899,0.014576,-0.006582,1.007542,1021.86,1505.01,370.51
11,999,0.015547,0.003126,1.018206,5726.85,-914.00,-4681.50
12,1109,0.023349,-0.001623,1.037890,10753.86,276.01,156.51
13,1209,0.003046,0.040062,1.004908,14831.86,-636.99,-383.49
14,1309,-0.002840,0.100415,0.961420,9872.86,2416.01,2124.51
15,1419,-0.005024,0.174127,0.947434,8362.86,1738.01,-107.49
16,1519,-0.027095,0.251138,0.904620,8663.86,1129.01,349.51
17,1619,-0.037304,0.333058,0.851035,6308.87,1756.02,883.52
18,1719,-0.024705,0.399303,0.818084,2918.86,-180.99,755.51
19,1829,-0.029835,0.463283,0.770594,3034.87,369.02,217.52
20,1929,-0.037949,0.524258,0.723252,861.86,-169.99,333.51
21,2029,-0.034024,0.572022,0.692165,-349.15,-251.00,256.50
22,2139,-0.040923,0.613262,0.670833,-172.13,284.02,-77.48
23,2239,-0.041991,0.647291,0.650154,170.85,5.00,17.50
24,2339,-0.042458,0.675153,0.633860,-287.13,-87.98,-41.48
25,2439,-0.038516,0.696749,0.626235,75.87,172.02,-190.48
26,2539,-0.044449,0.718639,0.615286,264.86,119.01,131.51
27,2649,-0.044127,0.748434,0.593309,333.87,537.02,359.52
28,2749,-0.046837,0.767259,0.566186,-258.14,-164.99,-11.49
29,2849,-0.042934,0.780806,0.548369,-2782.14,-979.99,-695.49
30,2949,-0.052214,0.788037,0.557358,-4261.14,-3142.99,-1318.49
31,3059,-0.047816,0.779901,0.585671,-490.15,156.00,372.50
32,3159,-0.028642,0.793987,0.568979,-3197.13,-561.98,842.52
33,3259,-0.036916,0.780363,0.576048,-10869.14,3484.01,752.51
34,3359,-0.044279,0.742763,0.609999,-11813.14,1226.01,581.51
35,3469,-0.038782,0.688647,0.656545,-8305.14,-1801.99,-959.49
36,3569,-0.036454,0.633218,0.698691,-5596.14,1199.01,965.51
37,3669,-0.035830,0.587551,0.726477,-6943.14,739.01,1526.51
38,3769,-0.026034,0.523153,0.760715,-5782.14,-904.99,-547.49
39,3879,-0.033033,0.456111,0.829845,-4710.13,-680.98,-1377.48
40,3979,-0.046582,0.392881,0.867035,-981.14,-162.99,598.51
41,4079,-0.043449,0.343127,0.885719,-1182.14,-483.99,345.51
42,4189,-0.035916,0.302667,0.897755,-1746.14,172.01,-132.49
43,4289,-0.031253,0.261886,0.909909,-1776.14,183.01,-193.49
44,4389,-0.012805,0.224220,0.926666,-54.13,-68.98,340.52
45,4489,-0.008660,0.189548,0.938860,-10.13,46.02,40.52
46,4589,-0.014054,0.159967,0.947466,-19.14,-40.99,-259.49
47,4699,-0.019316,0.137716,0.952895,-35.14,-43.99,-146.49
48,4799,-0.020109,0.113676,0.961960,-61.15,-33.00,-200.50
49,4899,-0.019007,0.096538,0.967174,2.85,4.00,13.50
50,4999,-0.015598,0.081311,0.971552,12.85,48.00,31.50
1,0,-0.001585,0.000243,0.999948,2.85,15.00,-2.50
2,99,-0.002437,-0.000284,0.999427,-18.15,-43.00,20.50
3,199,-0.003198,-0.000493,0.998747,-11.14,5.01,2.51
4,299,-0.003773,-0.001147,0.998846,-2.15,11.00,0.50
5,399,-0.004810,-0.000823,0.997887,-15.15,-47.00,98.50
6,499,-0.006296,-0.000915,0.997584,0.84,39.99,-95.51
7,599,-0.002102,-0.003117,0.998663,-84.14,-109.99,51.51
8,699,-0.003042,-0.002279,0.998702,2.85,39.00,-39.50
9,799,0.015623,-0.012882,0.993534,14.85,26.00,356.50
10,899,0.006641,-0.013618,0.993830,-76.15,-118.00,388.50
11,999,0.003090,-0.012615,0.997962,83.86,28.01,379.51
12,1109,-0.000826,-0.010846,1.002446,-150.14,-87.99,599.51
13,1209,-0.008787,-0.012291,1.001569,-5.16,193.99,2267.49
14,1309,-0.011599,-0.010388,1.003479,363.84,732.99,1006.49
15,1419,-0.006299,0.002271,1.009606,970.85,-927.00,-2855.50
16,1519,0.014155,-0.004547,1.027651,7374.84,702.99,-53.51
17,1619,-0.000045,0.008682,1.035920,13413.84,232.99,-712.51
18,1719,-0.004022,0.057519,1.010577,13261.86,-1516.99,-534.49
19,1829,-0.015825,0.123053,0.982626,10693.85,625.00,615.50
20,1929,-0.026077,0.197324,0.933123,9395.84,2097.99,1562.49
21,2029,-0.026589,0.289056,0.881176,3914.85,802.00,1647.50
22,2139,-0.020249,0.361919,0.830869,356.84,218.99,290.49
23,2239,-0.024253,0.419147,0.800815,-1404.15,-194.00,-288.50
24,2339,-0.028333,0.460888,0.792097,-1263.14,-62.99,-102.49
25,2439,-0.029898,0.494353,0.786060,-317.16,-74.01,-32.51
26,2539,-0.028189,0.525673,0.776552,253.83,113.98,83.48
27,2649,-0.027614,0.555463,0.759132,-347.15,44.00,65.50
28,2749,-0.027529,0.578112,0.751027,-864.14,-108.99,-242.49
29,2849,-0.029342,0.595385,0.746445,-917.14,-286.99,-197.49
30,2949,-0.031725,0.608200,0.741890,-662.15,-227.00,-103.50
31,3059,-0.031078,0.617445,0.744886,-977.16,-736.01,-263.51
32,3159,-0.034246,0.623984,0.752229,-182.16,-1634.01,-942.51
33,3259,-0.032469,0.624654,0.748949,396.86,433.01,-73.49
34,3359,-0.035116,0.632621,0.739460,-870.14,-210.99,98.51
35,3469,-0.033832,0.640528,0.726487,-3578.14,-3057.99,-1882.49
36,3569,-0.022157,0.628737,0.733917,-8441.14,1810.01,-439.49
37,3669,-0.046492,0.599269,0.743968,-11370.14,4075.01,2656.51
38,3769,-0.054249,0.550161,0.762674,-10247.13,1280.02,2282.52
39,3879,-0.031272,0.489852,0.831106,-6630.14,-921.99,-765.49
40,3979,-0.031864,0.440384,0.858585,-2227.14,-1241.99,-2030.49
41,4079,-0.030390,0.393283,0.871762,-2340.13,-700.98,-862.48
42,4189,-0.038897,0.335229,0.904880,-615.14,319.01,-765.49
43,4289,-0.033713,0.301301,0.909025,-135.15,-249.00,-888.50
44,4389,-0.033628,0.270795,0.923791,-1601.14,305.01,-300.49
45,4489,-0.040129,0.236022,0.933157,-414.13,694.02,-362.48
46,4589,-0.032837,0.208735,0.945438,-3.13,-819.98,192.52
47,4699,-0.023234,0.185395,0.949139,-206.15,124.00,-156.50
48,4799,-0.020235,0.168210,0.951534,-754.15,712.00,24.50
49,4899,-0.029533,0.154116,0.946044,-2612.15,17.00,829.50
50,4999,-0.020133,0.123148,0.965402,160.85,-2404.00,-870.50
1,0,-0.001347,0.000517,1.000021,-14.16,-21.01,11.49
2,99,-0.002346,0.000279,0.999966,17.84,63.99,-41.51
3,199,-0.002828,-0.000051,0.999388,-29.16,-47.01,34.49
4,299,-0.003805,0.000565,0.999555,-7.15,5.00,-25.50
5,399,-0.004545,0.000503,0.999002,-17.16,-44.01,40.49
6,499,-0.008029,0.004168,0.988223,-261.14,-278.99,-267.49
7,599,-0.000170,-0.001891,0.983840,45.85,165.00,-185.50
8,699,0.002098,-0.006620,0.986157,42.86,135.01,-413.49
9,799,-0.000150,-0.001283,0.984318,282.85,548.00,1265.50
10,899,-0.012662,-0.002496,0.981930,504.84,912.99,866.49
11,999,-0.025000,-0.001952,0.987116,340.86,340.01,1289.51
12,1109,-0.028639,-0.004493,0.990717,1303.84,172.99,1267.49
13,1209,-0.026276,-0.005499,1.005827,3541.85,-24.00,2727.50
14,1309,-0.003375,0.023730,1.016235,10353.86,-411.99,-1777.49
15,1419,-0.013700,0.060129,0.986813,8537.85,-620.00,304.50
16,1519,-0.014457,0.102896,0.975042,10959.84,-2152.01,-477.51
17,1619,-0.013141,0.156534,0.966704,10733.85,-45.00,67.50
18,1719,-0.021251,0.228657,0.934421,9521.83,3042.98,777.48
19,1829,-0.004817,0.320651,0.871879,6707.84,1432.99,1012.49
20,1929,-0.006210,0.386559,0.820146,659.85,973.00,-303.50
21,2029,-0.008549,0.439487,0.785603,286.83,-557.02,383.48
22,2139,-0.001381,0.492257,0.764134,-1163.15,134.00,-492.50
23,2239,-0.003253,0.532535,0.746471,-847.15,-228.00,73.50
24,2339,-0.001859,0.567100,0.734863,-927.16,17.99,-461.51
25,2439,-0.006369,0.593661,0.724209,-534.15,214.00,-287.50
26,2539,-0.011522,0.613729,0.717735,-821.15,109.00,-135.50
27,2649,-0.013484,0.632453,0.712159,-434.16,-314.01,-49.51
28,2749,-0.010757,0.652836,0.705332,83.86,-1419.99,-363.49
29,2849,-0.018162,0.661977,0.702697,739.85,-434.00,337.50
30,2949,-0.017041,0.678261,0.687181,654.85,-494.00,-72.50
31,3059,-0.003875,0.694410,0.674396,-1524.14,-880.99,-363.49
32,3159,-0.008119,0.696363,0.674076,-3462.14,-1816.99,-769.49
33,3259,0.008067,0.690900,0.687939,-9355.15,5609.00,420.50
34,3359,-0.024428,0.662068,0.695640,-10471.15,1664.01,1560.51
35,3469,-0.016086,0.617273,0.737250,-11873.14,-1699.99,517.51
36,3569,0.007594,0.556236,0.793236,-7647.15,-2872.00,-2767.50
37,3669,0.081591,0.427596,0.867393,-2224.15,2222.00,-1947.50
38,3769,0.074652,0.412405,0.842261,-8050.16,-708.01,-3446.51
39,3879,0.061796,0.345440,0.880537,-9957.15,-266.00,-2181.50
40,3979,0.025014,0.276619,0.896994,203.85,-308.00,467.50
41,4079,0.024786,0.234709,0.913381,-9.17,-1391.02,703.48
42,4189,0.014228,0.199837,0.925461,257.84,21.99,-172.51
43,4289,0.012193,0.172466,0.935601,263.85,-177.00,45.50
44,4389,0.012863,0.143231,0.945410,201.86,-15.99,-235.49
45,4489,-0.002846,0.112413,0.954279,1120.84,-857.01,-2158.51
46,4589,-0.001990,0.098155,0.964893,2466.84,-2961.01,29.49
47,4699,0.030470,0.107643,0.964980,-27.16,-22.01,628.49
48,4799,0.022612,0.095877,0.969833,-408.15,472.00,-104.50
49,4899,0.031551,0.091095,0.975350,227.84,-300.01,599.49
50,4999,0.027944,0.083368,0.980020,-56.15,101.00,-101.50
1,0,-0.000010,-0.001351,1.000552,-16.16,2.99,53.49
2,99,-0.001118,-0.002004,1.000948,-11.17,6.98,13.48
3,199,-0.001346,-0.002267,1.000607,-22.17,14.98,37.48
4,299,-0.001997,-0.002930,1.000317,-22.16,9.99,4.49
5,399,-0.003832,-0.002981,0.999869,0.83,2.98,-86.52
6,499,-0.009457,-0.006521,0.998829,-55.19,5.96,-279.54
7,609,-0.008049,-0.002939,1.001589,87.83,49.98,505.48
8,709,0.005250,-0.002494,1.009300,179.82,415.97,-322.53
9,809,-0.001590,-0.011600,1.026346,1497.83,377.98,232.48
10,909,-0.008394,-0.013060,1.021426,4515.83,-369.02,1058.48
11,1009,-0.002531,0.015655,0.999575,3222.83,-326.02,341.48
12,1119,-0.001301,0.033544,0.994807,709.83,31.98,458.48
13,1219,-0.010162,0.039247,1.019356,1403.84,255.99,-199.51
14,1319,0.012354,0.059090,1.048224,10309.83,836.98,505.48
15,1429,0.010857,0.107067,1.006020,13470.83,-967.02,-2952.52
16,1529,-0.001824,0.159474,0.989482,12994.83,-1842.02,-3258.52
17,1629,-0.018608,0.225737,0.946366,12732.83,168.98,-615.52
18,1729,-0.025056,0.309343,0.881758,10408.83,-29.02,515.48
19,1839,-0.020319,0.395880,0.805380,4437.83,1447.98,873.48
20,1939,-0.014005,0.469034,0.746648,-980.19,51.96,97.46
21,2039,-0.016548,0.522572,0.720530,-1089.17,-29.02,-221.52
22,2149,-0.020467,0.570844,0.693294,22.83,-330.02,-42.52
23,2249,-0.021893,0.614458,0.661446,-422.16,89.99,86.49
24,2349,-0.025303,0.648417,0.642029,-1030.16,-186.01,-128.51
25,2449,-0.023825,0.675231,0.630450,-1082.16,-201.01,-114.51
26,2549,-0.025059,0.696595,0.621561,-1045.16,-636.01,-407.51
27,2659,-0.023087,0.711128,0.617208,-1454.17,-601.02,-270.52
28,2759,-0.022454,0.724416,0.613875,-1834.17,-532.02,-361.52
29,2859,-0.021221,0.733348,0.611518,-2446.16,-201.01,-91.51
30,2959,-0.020850,0.736381,0.612078,-3372.16,-597.01,-426.51
31,3069,-0.019637,0.728833,0.632128,-3830.17,-707.02,-414.52
32,3169,-0.027652,0.719506,0.652448,-2349.18,16.97,278.47
33,3269,-0.019340,0.704181,0.651996,-9407.17,2309.98,828.48
34,3369,-0.027125,0.656676,0.657800,-15939.17,4110.98,2678.48
35,3479,-0.023396,0.591193,0.701039,-13180.16,95.99,388.49
36,3579,-0.027808,0.503196,0.769543,-7358.17,-357.02,-625.52
37,3679,-0.033865,0.451286,0.805945,380.82,-924.03,-498.53
38,3779,-0.017699,0.410660,0.826633,-2902.16,-1513.01,-802.51
39,3889,-0.021097,0.348352,0.856596,-1681.16,624.99,-623.51
40,3989,-0.026037,0.298685,0.880746,-1262.17,-221.02,232.48
41,4089,-0.028038,0.258208,0.893473,-1245.18,-93.03,-224.53
42,4199,-0.015072,0.214720,0.907916,-2603.16,-279.01,-287.51
43,4299,-0.020567,0.184073,0.918747,29.83,-331.02,133.48
44,4399,-0.014618,0.150881,0.930535,-80.18,-1619.03,-82.53
45,4499,-0.014816,0.127851,0.935098,-77.17,86.98,-417.52
46,4599,-0.013447,0.106333,0.945440,45.83,-36.02,-113.52
47,4709,-0.012154,0.089344,0.953809,11.84,1.99,97.49
48,4809,-0.004080,0.073328,0.960741,-18.17,-10.02,89.48
49,4909,-0.006371,0.062187,0.967053,-1.17,26.98,-83.52
50,5009,-0.004017,0.050281,0.972016,20.83,-85.02,161.48
1,0,0.000227,-0.000966,0.997457,-6.18,57.97,50.47
2,99,-0.001045,-0.001092,0.997548,-19.17,4.98,45.48
3,199,-0.000313,-0.001803,0.997571,-6.17,-11.02,60.48
4,299,0.000401,-0.002242,0.997095,-18.16,-1.01,45.49
5,399,0.003150,-0.003714,0.996783,-20.17,-2.02,206.48
6,499,0.006988,-0.005351,0.996297,-49.19,5.96,172.46
7,599,0.008822,-0.003207,0.995116,-50.17,147.98,355.48
8,699,0.005034,-0.007355,0.993965,26.82,139.97,687.47
9,799,0.004268,-0.006851,0.993921,13.82,66.97,103.47
10,899,-0.001381,-0.008511,0.998937,47.83,-14.02,-96.52
11,999,0.009655,-0.009446,1.000948,212.83,279.98,411.48
12,1109,0.015630,-0.009197,1.027322,4696.83,15.98,-471.52
13,1209,0.021680,0.015387,1.004000,10165.84,667.99,-876.51
14,1309,0.014169,0.056021,0.980881,8909.82,533.97,-838.53
15,1419,-0.012686,0.094204,0.953136,9851.84,743.99,-184.51
16,1519,-0.026981,0.148211,0.951635,8809.82,1699.97,1319.47
17,1619,-0.021626,0.208198,0.926959,6598.83,1349.98,1128.48
18,1719,-0.025186,0.271217,0.908200,7542.83,-576.02,29.48
19,1829,-0.025392,0.342343,0.862243,4811.83,531.98,660.48
20,1929,-0.021484,0.405601,0.824883,647.83,160.98,231.48
21,2029,-0.029881,0.460451,0.801184,-293.17,-126.02,-404.52
22,2139,-0.034528,0.502112,0.785763,727.82,-36.03,116.47
23,2239,-0.032637,0.540856,0.764434,1782.84,48.99,267.49
24,2339,-0.027222,0.578951,0.735135,718.82,64.97,237.47
25,2439,-0.027544,0.609721,0.716201,-636.17,2.98,-70.52
26,2539,-0.029484,0.631243,0.712685,55.82,-81.03,-127.53
27,2649,-0.032360,0.654334,0.700377,1959.82,-23.03,196.47
28,2749,-0.027371,0.681945,0.666496,-1150.18,125.97,653.47
29,2849,-0.022287,0.697706,0.652822,-2016.16,-107.01,20.49
30,2949,-0.016684,0.707916,0.652624,-2290.18,-1138.03,-684.53
31,3059,-0.018129,0.709545,0.663773,-1636.17,-639.02,-455.52
32,3159,-0.017453,0.711992,0.669641,-539.18,76.97,92.47
33,3259,-0.012685,0.716068,0.663369,-1212.17,-247.02,-388.52
34,3359,-0.013375,0.713453,0.676366,-1858.17,-1143.02,-1135.52
35,3469,-0.021871,0.715314,0.658373,-5419.16,3301.99,193.49
36,3569,-0.022812,0.694136,0.657215,-10010.17,-820.02,-522.52
37,3669,-0.010100,0.662126,0.678221,-9897.17,1256.98,343.48
38,3769,-0.028773,0.607068,0.742146,-5373.17,1515.98,-1109.52
39,3879,-0.045397,0.557303,0.769126,-2700.17,1282.98,3061.48
40,3979,-0.043780,0.538732,0.768677,-4867.17,-1684.02,-487.52
41,4079,-0.064433,0.495335,0.785342,-7379.16,234.99,-1130.51
42,4189,-0.061059,0.415784,0.843526,-4833.16,551.99,-514.51
43,4289,-0.070661,0.362979,0.855043,682.83,-438.02,1301.48
44,4389,-0.040901,0.314451,0.884113,-1166.16,-947.01,-15.51
45,4489,-0.028917,0.267745,0.905124,-1220.17,-354.02,-277.52
46,4589,-0.031640,0.233026,0.916831,-1245.18,-939.03,-1051.53
47,4699,-0.004109,0.186741,0.935773,-1566.19,-308.04,-231.54
48,4799,-0.000006,0.157983,0.947771,82.81,-119.04,114.46
49,4899,0.008260,0.136725,0.949272,242.82,-326.03,417.47
50,4999,-0.000955,0.121842,0.936468,-333.18,-11.03,-432.53
1,0,-0.000084,-0.000619,0.999526,-10.18,1.97,-30.53
2,99,-0.001785,-0.001327,1.000021,-28.18,4.97,11.47
3,199,-0.000174,-0.002736,0.999709,-17.19,0.96,51.46
4,299,0.000903,-0.002212,0.999645,-26.19,-1.04,131.46
5,399,0.001251,-0.002865,0.999609,-11.17,15.98,10.48
6,499,-0.003031,-0.003383,0.998480,-21.19,-44.04,545.46
7,599,-0.016431,-0.002542,0.996257,492.81,-926.04,1489.46
8,699,-0.008905,0.003355,0.990046,-387.18,477.97,2534.47
9,799,-0.010327,-0.012507,0.992402,-39.18,83.97,-151.53
10,899,-0.007983,-0.005335,1.003285,640.83,458.98,-1119.52
11,999,-0.008188,-0.011507,1.025646,6179.82,633.97,-673.53
12,1109,-0.018177,0.008918,1.022846,11147.81,-1016.04,-1912.54
13,1209,-0.013630,0.050065,1.005340,11101.84,-797.01,-1761.51
14,1309,-0.026959,0.098461,0.986616,12255.82,-827.03,-963.53
15,1419,-0.029903,0.164025,0.960409,14583.81,1055.96,1269.46
16,1519,-0.029255,0.263589,0.864910,10299.83,-810.02,604.48
17,1619,-0.032165,0.349299,0.798475,2166.82,-763.03,235.47
18,1719,-0.028175,0.416366,0.766798,-1569.18,-8.03,-175.53
19,1829,-0.027402,0.473465,0.744689,-525.17,-6.02,-27.52
20,1929,-0.024292,0.522182,0.724962,73.82,97.97,71.47
21,2029,-0.023167,0.565111,0.703433,196.83,181.98,152.48
22,2139,-0.022559,0.601601,0.686983,91.84,34.99,-72.51
23,2239,-0.023159,0.633295,0.668918,-143.17,0.98,22.48
24,2339,-0.021472,0.663769,0.645304,-626.17,668.98,159.48
25,2439,-0.016871,0.686046,0.630816,-3257.18,-1326.03,-452.53
26,2539,-0.009755,0.697035,0.641079,-2640.16,655.99,-518.51
27,2649,-0.014802,0.707767,0.641819,-670.17,2144.98,-341.52
28,2749,-0.023689,0.711232,0.646385,-2747.17,5084.98,1263.48
29,2849,-0.027288,0.714927,0.628751,-7551.18,866.97,65.47
30,2949,-0.031610,0.683022,0.650145,-12245.17,358.98,-686.52
31,3059,-0.032445,0.636713,0.692628,-11295.17,1730.98,284.48
32,3159,-0.051119,0.574718,0.737583,-8837.18,1259.97,737.47
33,3259,-0.063677,0.503236,0.783302,-4333.18,560.97,2096.47
34,3359,-0.039524,0.457931,0.818958,-3019.18,-1327.03,394.47
35,3469,-0.031702,0.423120,0.828612,-7977.17,748.98,-619.52
36,3569,0.022627,0.266840,0.991396,-163.18,-4118.03,-2258.53
37,3669,0.015414,0.230700,0.994996,21.82,-580.03,622.47
38,3769,0.003697,0.194963,0.993698,1.82,-1412.03,41.47
39,3879,-0.007525,0.168708,0.993639,13.84,-1826.01,-262.51
40,3979,0.002730,0.138847,1.008548,32.83,-44.02,278.48
41,4079,-0.001022,0.116559,1.008129,-5.17,-64.02,251.48
42,4189,0.001574,0.097651,1.007352,58.83,-56.02,-183.52
43,4289,0.002188,0.080389,1.005134,231.82,-148.03,-381.53
44,4389,0.008074,0.062787,1.005978,168.81,-44.04,-589.54
45,4489,0.005625,0.057767,1.005597,56.83,1.98,-200.52
46,4589,0.004167,0.049857,1.004393,10.83,15.98,-41.52
47,4699,0.003641,0.044177,1.003883,16.83,19.98,-75.52
48,4799,0.003853,0.039130,1.003523,8.83,43.98,-111.52
49,4899,0.000921,0.034217,1.004096,11.84,13.99,-50.51
50,4999,-0.001169,0.029912,1.003777,21.83,-32.02,60.48
1,0,-0.000853,-0.000380,1.000039,-13.18,19.97,-5.53
2,99,-0.001304,-0.000301,0.999724,-32.18,8.97,65.47
3,199,-0.002181,-0.000087,0.998761,-18.16,13.99,39.49
4,299,-0.002432,-0.000106,0.998492,-61.18,15.97,84.47
5,399,-0.002169,0.001086,0.998629,-47.17,37.98,9.48
6,499,-0.004858,0.001403,0.998489,-24.17,57.98,-39.52
7,599,-0.013423,0.007075,0.999341,62.83,-140.02,76.48
8,699,-0.012703,0.015447,0.991642,-467.18,-1.03,1514.47
9,799,-0.009380,0.010699,0.988522,-405.18,40.97,1024.47
10,899,-0.004377,0.003440,0.990557,362.82,68.97,771.47
11,999,0.012034,0.007817,0.994009,-62.17,444.98,-2086.52
12,1109,0.015894,0.012032,0.989050,-22.18,627.97,-2451.53
13,1209,-0.007503,-0.002092,1.017758,1509.81,227.96,5.46
14,1309,-0.033360,-0.006352,1.004605,9197.82,668.97,3885.47
15,1419,0.017208,0.062043,0.983647,12222.83,-449.02,2661.48
16,1519,0.028660,0.110071,0.971637,10072.83,-544.02,727.48
17,1619,0.032590,0.160636,0.951065,9456.83,-881.02,-1855.52
18,1719,0.030272,0.214602,0.940555,11919.82,316.97,-2029.53
19,1829,0.011438,0.283875,0.901482,11058.82,377.97,164.47
20,1929,0.011634,0.378901,0.809914,6209.82,746.97,629.47
21,2029,0.010354,0.450482,0.760189,-1762.19,164.96,-134.54
22,2139,0.001155,0.502848,0.735940,-1941.16,-357.01,-299.51
23,2239,-0.001318,0.544796,0.723494,-639.17,-243.02,-98.52
24,2339,-0.003109,0.582429,0.706672,366.82,-91.03,3.47
25,2439,-0.004045,0.616156,0.685561,177.83,-6.02,-14.52
26,2539,-0.004840,0.644129,0.670748,-239.17,-35.02,-25.52
27,2649,-0.004363,0.667704,0.659164,-256.17,-222.02,-90.52
28,2749,-0.003884,0.688677,0.646443,-483.17,-89.02,34.48
29,2849,-0.001536,0.706174,0.635612,-1154.18,-408.03,-111.53
30,2949,-0.003844,0.718831,0.628054,-1805.18,-735.03,-500.53
31,3059,-0.001960,0.721661,0.637394,-3469.17,-943.02,-467.52
32,3159,-0.003635,0.720881,0.648593,-1526.17,-1373.02,-853.52
33,3259,-0.006104,0.724118,0.649836,-332.18,-684.03,-352.53
34,3359,-0.005547,0.721504,0.655323,-1196.17,298.98,65.48
35,3469,0.002489,0.718843,0.663796,-787.18,-356.03,-224.53
36,3569,-0.000258,0.716636,0.676033,-526.19,-552.04,-27.54
37,3669,-0.005998,0.713972,0.675210,-2004.17,-2193.02,-487.52
38,3769,-0.000769,0.712880,0.657739,-6643.17,1340.98,716.48
39,3879,0.012263,0.688771,0.676305,-9721.16,3154.99,735.49
