sample_num,timestamp_ms,acc_x(g),acc_y(g),acc_z(g),gyro_x(LSB),gyro_y(LSB),gyro_z(LSB)
1,0,-0.002140,0.076108,0.979952,22.75,2.55,8.10
2,98,-0.003370,0.140929,0.963040,48.83,8.63,1.18
3,198,-0.004763,0.195057,0.948830,38.83,9.63,-32.82
4,298,-0.006168,0.241431,0.936238,65.83,-7.37,6.18
5,398,-0.007508,0.281070,0.924639,24.83,22.63,-31.82
6,498,-0.008647,0.315257,0.914797,63.84,-3.36,7.19
7,598,0.003020,0.341368,0.768059,-21048.16,-582.36,-432.81
8,698,-0.058511,0.409723,0.694913,-8133.14,8043.66,233.21
9,798,-0.076627,0.397055,0.671300,-14941.16,129.64,-1947.81
10,898,-0.058939,0.341151,0.709878,-1510.17,4675.63,-117.82
11,998,-0.076643,0.272045,0.745965,-609.16,-24.36,77.19
12,1108,-0.067833,0.222899,0.787516,-12.17,-88.37,129.18
13,1208,-0.062761,0.184513,0.818732,20.83,-20.37,3.18
14,1308,-0.061308,0.150785,0.847078,-6.18,2.62,6.17
15,1418,-0.061097,0.121550,0.869873,1.83,32.63,-24.82
16,1518,-0.060972,0.096608,0.889194,4.84,12.64,-3.81
17,1618,-0.077162,0.051568,0.921931,-707.15,-2860.35,1033.20
18,1718,-0.063038,0.036702,0.890321,4032.83,-12544.37,7706.18
19,1828,-0.032373,0.022455,0.864662,752.83,-12979.37,14592.18
20,1928,0.079733,-0.020526,0.871873,-4870.15,-230.35,21864.20
21,2028,0.192200,-0.074107,0.945606,3174.86,5038.66,12302.21
22,2138,0.141348,-0.155064,1.026003,-1997.17,4311.63,1951.18
23,2238,0.161093,-0.177460,1.015038,10294.84,1961.64,2669.19
24,2338,0.148837,-0.185199,1.020897,5638.84,7903.64,470.19
25,2438,0.136716,-0.177715,1.024082,9019.85,12725.65,1035.20
26,2538,-0.195340,0.151086,0.769381,3998.85,1372.65,-2257.80
27,2648,-0.229790,0.163042,0.785941,1059.86,-514.34,-2613.79
28,2748,-0.242118,0.164268,0.836034,223.85,66.65,-210.80
29,2848,-0.255269,0.169759,0.837267,-8284.15,-17463.35,-3651.80
30,2948,-0.252551,0.089613,0.897203,-5105.16,1096.64,-4070.81
31,3058,-0.276369,0.111082,0.835190,-1855.15,-2109.35,-1076.80
32,3158,-0.270174,0.121585,0.814029,-1970.15,-11871.35,2047.20
33,3258,-0.188223,0.100612,0.829897,-963.14,-1310.34,2895.21
34,3358,-0.156175,0.065701,0.840310,544.85,-728.35,-116.80
35,3468,-0.125290,0.066074,0.849582,-308.13,-47.33,202.22
36,3568,-0.108889,0.053318,0.875315,227.86,133.66,4.21
37,3668,-0.094491,0.047712,0.894351,67.86,26.66,91.21
38,3768,-0.081062,0.042946,0.908517,14.85,2.65,26.20
39,3878,-0.069409,0.037907,0.921766,7.86,-3.34,-5.79
40,3978,-0.060512,0.034118,0.933724,-1.16,0.64,14.19
41,4078,-0.051978,0.029854,0.943577,-0.13,-18.33,21.22
42,4188,-0.044450,0.026266,0.952007,10.85,5.65,-3.80
43,4288,-0.038820,0.023967,0.959209,0.86,-2.34,-16.79
44,4388,-0.033998,0.022379,0.965148,-4.15,-2.35,-21.80
45,4488,-0.029845,0.021175,0.970104,-2.15,0.65,-12.80
46,4588,-0.026644,0.020812,0.974390,-4.14,0.66,-8.79
47,4698,-0.023209,0.019862,0.978052,-0.14,-9.34,-5.79
48,4798,-0.020362,0.018999,0.981512,1.86,2.66,7.21
49,4898,-0.018034,0.018156,0.984874,8.86,5.66,6.21
50,4998,-0.016331,0.017476,0.987311,5.84,-7.36,-2.81
1,0,-0.003143,0.075872,0.979898,19.86,-25.34,45.21
2,99,-0.005594,0.139558,0.962190,-24.10,12.70,-8.75
3,199,-0.008227,0.193691,0.947375,16.89,-6.31,11.24
4,299,-0.009403,0.240143,0.935296,20.90,-3.30,17.25
5,399,-0.011153,0.279738,0.924497,-22.10,5.70,-27.75
6,499,-0.012475,0.313137,0.915209,19.90,-15.30,30.25
7,599,-0.011348,0.387504,0.812922,-27655.11,247.69,290.24
8,699,0.040019,0.417390,0.737826,-15806.12,3431.68,60.23
9,799,0.033767,0.333755,0.936595,-12327.10,-11774.30,-2790.75
10,899,0.030925,0.279016,0.961453,-4430.11,1080.69,-1798.76
11,999,0.011553,0.229870,0.972366,-2.11,120.69,15.24
12,1109,0.005433,0.186502,0.977613,19.89,-8.31,35.24
13,1209,-0.000172,0.148449,0.983099,-17.11,-7.31,-12.76
14,1309,-0.004277,0.117698,0.984521,-8.10,-1.30,-19.75
15,1419,-0.008920,0.091065,0.986956,-4.09,0.71,1.26
16,1519,-0.031873,0.089026,0.982123,-607.10,-1109.30,-139.75
17,1619,-0.078940,0.074970,0.997443,-2572.09,-12969.29,2750.26
18,1719,-0.091298,0.046598,0.952182,-4133.11,-18653.30,10466.24
19,1829,-0.004153,-0.009050,0.977742,4078.89,-3896.31,10769.24
20,1929,0.060564,-0.028225,0.939281,4005.90,5883.70,10831.25
21,2029,0.141062,-0.060747,0.927922,512.90,2013.70,2988.25
22,2139,0.162794,-0.084289,0.934068,-172.09,274.71,147.26
23,2239,0.192984,-0.085568,0.882713,-185.10,22981.70,5607.25
24,2339,0.190576,-0.097147,0.884434,5832.91,8259.71,469.26
25,2439,0.175876,-0.106055,0.906241,9286.90,13085.70,971.25
26,2539,0.417074,-0.136736,0.936110,-2044.10,-9416.30,-3483.75
27,2649,0.295176,-0.085250,0.928009,695.91,-218.29,-1560.74
28,2749,0.211594,-0.051906,0.929711,-121.11,-163.31,209.24
29,2849,0.133078,0.003334,0.884850,4767.88,4161.68,-1882.77
30,2949,0.106184,0.060249,0.929794,-1248.10,10963.70,-856.75
31,3059,-0.026979,0.043881,0.959225,-4518.11,-4442.31,-3063.76
32,3159,-0.097430,0.053552,0.967121,-1561.09,-8593.29,2070.26
33,3259,-0.033004,0.052819,0.965904,3873.90,-5319.30,6071.25
34,3359,-0.024164,0.019255,0.985854,233.89,-1161.31,2568.24
35,3469,-0.017749,0.002151,0.984335,-387.10,-358.30,-258.75
36,3569,-0.009934,0.004422,0.988721,2.91,410.71,-1444.74
37,3669,-0.015285,0.016478,0.992633,-120.10,36.70,-80.75
38,3769,-0.010806,0.016088,0.994858,-14.10,-4.30,39.25
39,3879,-0.011411,0.014529,0.995578,11.91,-2.29,-17.74
40,3979,-0.009546,0.013551,0.996447,-6.11,3.69,6.24
41,4079,-0.008894,0.013636,0.996928,13.89,3.69,-30.76
42,4189,-0.008853,0.012683,0.997539,-3.09,-10.29,14.26
43,4289,-0.008103,0.011781,0.998113,0.89,4.69,-13.76
44,4389,-0.008455,0.010850,0.998473,2.90,2.70,-3.75
45,4489,-0.008241,0.010681,0.998505,4.91,-5.29,13.26
46,4589,-0.007876,0.010062,0.998495,-0.08,0.72,5.27
47,4699,-0.007475,0.009773,0.998798,0.90,-5.30,8.25
48,4799,-0.007719,0.009582,0.999476,9.91,-2.29,-6.74
49,4899,-0.007323,0.009365,0.999778,-5.10,-0.30,6.25
50,4999,-0.007536,0.008815,0.999943,-2.09,-1.29,3.26
1,0,-0.002189,0.075690,0.978929,-6.08,-13.28,15.27
2,99,-0.004344,0.139806,0.961841,-76.11,8.69,-39.76
3,199,-0.006084,0.193847,0.947189,-18.11,-33.31,54.24
4,299,-0.007270,0.240001,0.934606,-69.11,4.69,-7.76
5,399,-0.009560,0.278775,0.924461,-45.12,1.68,4.23
6,499,-0.010261,0.312794,0.915269,34.89,-18.31,50.24
7,599,-0.011498,0.341363,0.907877,-27.09,19.71,-51.74
8,699,-0.012421,0.365775,0.901100,55.90,-11.30,48.25
9,799,-0.012730,0.386946,0.895175,-20.11,10.69,-36.76
10,899,-0.013065,0.398294,0.869813,-95.11,96.69,76.24
11,999,-0.075094,0.393237,1.032661,-24870.10,-356.30,-1113.75
12,1109,-0.103446,0.358983,1.124537,-17645.10,631.70,-610.75
13,1209,-0.010084,0.247597,1.157954,-9748.11,-5714.31,-2404.76
14,1309,-0.022498,0.182766,1.158709,-2892.09,-423.29,-2485.74
15,1419,-0.026056,0.149412,1.126300,-95.12,68.68,-18.77
16,1519,-0.028952,0.117985,1.106169,9.89,20.69,-3.76
17,1619,-0.032165,0.090722,1.089862,22.90,11.70,-10.75
18,1719,-0.033540,0.066964,1.076149,3.91,-1.29,-18.74
19,1829,-0.033995,0.047538,1.064456,-11.10,-12.30,-0.75
20,1929,-0.050715,0.062574,1.007714,-4918.12,-6850.32,-646.77
21,2029,-0.073826,0.043074,1.006817,-2712.11,-22018.31,3807.24
22,2139,0.124792,-0.074429,1.158398,-1637.11,-9881.31,11847.24
23,2239,0.221382,-0.009932,1.019652,5171.90,-2781.30,8848.25
24,2339,0.249193,-0.044209,1.016671,2034.91,4553.71,8040.26
25,2439,0.258092,-0.058055,0.995149,-213.11,1017.69,1588.24
26,2539,0.289185,-0.097693,1.002546,1401.90,153.70,-286.75
27,2649,0.252882,-0.191847,1.161607,5724.88,5263.68,1664.23
28,2749,0.237388,-0.185892,1.140427,7050.90,9725.70,847.25
29,2849,0.202446,-0.176728,1.114954,13570.91,19380.71,2389.26
30,2949,-0.125643,-0.014580,1.134922,1511.90,-1153.30,-2264.75
31,3059,-0.160860,0.013455,1.107949,500.90,-215.30,-1488.75
32,3159,-0.159978,0.034007,1.164325,2401.90,2700.70,-612.75
33,3259,-0.112647,0.013354,1.128584,-7019.11,-15104.31,-2605.76
34,3359,-0.167117,-0.066256,1.225791,633.89,2014.69,-1677.76
35,3469,-0.245131,-0.066523,1.191487,-3430.11,-4287.31,-1373.76
36,3569,-0.277715,-0.037819,1.169872,-2699.11,-13858.31,-1124.76
37,3669,-0.206735,-0.046307,1.155235,-1238.10,-1323.30,1427.25
38,3769,-0.176779,-0.047845,1.099287,321.91,-76.29,1105.26
39,3879,-0.147014,-0.036536,1.091777,-8.10,-3.30,76.25
40,3979,-0.123141,-0.033204,1.079607,-40.09,-9.29,26.26
41,4079,-0.105285,-0.025410,1.067670,0.91,2.71,-44.74
42,4189,-0.090639,-0.021734,1.057706,5.89,-12.31,10.24
43,4289,-0.077494,-0.016045,1.048962,-4.11,2.69,6.24
44,4389,-0.066540,-0.012271,1.041969,2.89,1.69,4.24
45,4489,-0.057101,-0.008954,1.035696,0.90,-6.30,14.25
46,4589,-0.048657,-0.006262,1.030455,-1.10,-3.30,3.25
47,4699,-0.042431,-0.004579,1.025506,-2.10,-0.30,-8.75
48,4799,-0.036792,-0.003459,1.021830,4.89,-4.31,41.24
49,4899,-0.030661,-0.002287,1.018578,-2.10,0.70,-21.75
50,4999,-0.028655,-0.000888,1.015612,-0.10,-0.30,6.25
1,0,-0.003838,0.074682,0.980247,-39.10,9.70,-37.75
2,99,-0.006111,0.138510,0.963401,28.91,-29.29,57.26
3,199,-0.007750,0.193204,0.948937,-26.08,1.72,-34.73
4,299,-0.010608,0.239602,0.937337,4.92,5.72,-8.73
5,399,-0.011939,0.279186,0.926489,29.91,-9.29,18.26
6,499,-0.013839,0.312339,0.917305,-35.08,11.72,-39.73
7,599,-0.015014,0.340903,0.909956,26.92,-17.28,45.27
8,699,-0.015281,0.364908,0.902995,-34.09,8.71,-12.74
9,799,-0.016332,0.385001,0.897811,-17.07,-7.27,12.28
10,899,-0.016822,0.402446,0.893496,5.92,-14.28,31.27
11,999,-0.017532,0.416689,0.889957,-41.08,3.72,-30.73
12,1109,-0.007808,0.449431,0.777304,-30146.09,-364.29,414.26
13,1209,0.024242,0.460232,0.742249,-17854.10,4451.70,457.25
14,1309,0.068221,0.386504,0.853609,-10827.09,-10794.29,-2594.74
15,1419,0.049645,0.307172,0.910379,-3474.10,-831.30,-2473.75
16,1519,0.034772,0.251532,0.923881,-96.09,41.71,-161.74
17,1619,0.024657,0.205483,0.932739,51.91,36.71,-7.74
18,1719,0.014136,0.166030,0.941697,5.92,-5.28,13.27
19,1829,0.006402,0.131836,0.949769,3.91,-1.29,-9.74
20,1929,0.000103,0.102624,0.956593,-4.09,-8.29,-2.74
21,2029,-0.009811,0.081841,0.962412,-34.08,-91.28,-19.73
22,2139,-0.054382,0.070346,0.979846,-2811.08,-12415.28,2601.27
23,2239,-0.071211,0.043236,0.940356,-3796.08,-17139.28,9832.27
24,2339,-0.049626,0.015980,0.947165,4576.92,-3449.28,10777.27
25,2439,0.039344,-0.015060,0.932462,3973.93,2032.73,9344.28
26,2539,0.118631,-0.055581,0.941663,868.93,1895.73,3945.28
27,2649,0.147610,-0.078506,0.938625,113.92,-246.28,-360.73
28,2749,0.199287,-0.090045,0.926834,-287.06,22065.74,4858.29
29,2849,0.193315,-0.114374,0.933125,5854.93,8345.73,624.28
30,2949,0.173591,-0.114234,0.940945,9685.92,13554.72,1114.27
31,3059,0.071004,-0.069291,0.858730,-1860.06,1231.74,-4762.71
32,3159,0.011124,-0.028746,0.858776,692.92,-365.28,-1464.73
33,3259,-0.047775,-0.005562,0.871742,-36.08,-57.28,84.27
34,3359,-0.079804,0.043954,0.840393,3524.92,3365.72,-1892.73
35,3469,-0.087179,0.123726,0.767915,-8297.06,9935.74,-3283.71
36,3569,-0.185166,0.076102,0.839975,-3718.08,-5661.28,-2219.73
37,3669,-0.247050,0.076949,0.842633,-1897.08,-10532.28,969.27
38,3769,-0.222436,0.141444,0.739972,2523.91,-5224.29,4691.26
39,3879,-0.187140,0.092096,0.793097,-116.07,-777.27,2829.28
40,3979,-0.157010,0.072600,0.832706,-316.06,-453.26,132.29
41,4079,-0.135355,0.068168,0.853300,-56.08,-12.28,-370.73
42,4189,-0.114348,0.061489,0.874357,0.92,36.72,-50.73
43,4289,-0.098964,0.055171,0.893024,6.92,-12.28,12.27
44,4389,-0.085137,0.049452,0.910136,-6.08,-4.28,-18.73
45,4489,-0.071681,0.044153,0.923510,-1.08,0.72,-11.73
46,4589,-0.061378,0.039648,0.935042,7.92,-2.28,-2.73
47,4699,-0.052823,0.035837,0.944534,-0.07,-13.27,22.28
48,4799,-0.044763,0.031920,0.953224,3.91,-7.29,5.26
49,4899,-0.037510,0.028774,0.960372,4.93,-0.27,11.28
50,4999,-0.032150,0.026063,0.966448,12.91,-3.29,5.26
1,0,-0.002317,0.076496,0.979313,24.93,-4.27,3.28
2,99,-0.003629,0.141022,0.962370,29.90,-1.30,10.25
3,199,-0.005347,0.195064,0.948041,35.92,-3.28,-2.73
4,299,-0.006936,0.240670,0.935752,18.90,-5.30,-3.75
5,399,-0.009312,0.279710,0.924849,9.91,-12.29,5.26
6,499,-0.008366,0.312527,0.916240,-6.09,-6.29,12.26
7,599,-0.009740,0.341063,0.908117,-3.10,-2.30,-22.75
8,699,-0.011604,0.365520,0.900571,-15.09,-7.29,2.26
9,799,-0.012749,0.386125,0.894908,-18.09,-0.29,-3.74
10,899,-0.013063,0.403694,0.890498,2.90,-1.30,-4.75
11,999,-0.019152,0.414527,0.856262,-185.08,128.72,145.27
12,1109,0.002918,0.191008,1.037265,-8974.08,-764.28,-62.73
13,1209,-0.039443,0.192416,1.111056,-16810.08,-18.28,-1025.73
14,1309,0.008650,0.164683,1.057212,-9774.08,-5134.28,-4108.73
15,1419,-0.018641,0.126736,1.066634,-651.10,424.70,-579.75
16,1519,-0.023418,0.101365,1.048220,24.91,-1.29,-40.74
17,1619,-0.026306,0.078775,1.038372,4.90,20.70,-3.75
18,1719,-0.029750,0.059683,1.031430,-21.08,-18.28,2.27
19,1829,-0.031377,0.043748,1.026719,14.91,1.71,4.26
20,1929,-0.033292,0.029288,1.021928,14.90,5.70,3.25
21,2029,-0.060023,0.048600,0.977407,-3591.10,-5604.30,733.25
22,2139,-0.109386,0.032130,0.998945,3978.90,-13196.30,4916.25
23,2239,-0.085994,0.017234,0.986089,-2705.09,-17288.29,10775.26
24,2339,-0.031706,0.005872,0.942622,-3876.10,-3613.30,16516.25
25,2439,0.019640,-0.030794,0.883649,-2997.09,16321.71,18617.26
26,2539,0.034243,-0.051981,0.824329,1295.90,-26.30,6954.25
27,2649,0.050885,-0.108918,0.841766,1535.89,853.69,892.24
28,2749,0.030882,-0.103665,0.821761,12619.90,9587.70,891.25
29,2849,0.035431,-0.094365,0.824624,11401.92,16514.72,657.27
30,2949,-0.281430,0.218392,0.701703,-446.10,-2010.30,-4876.75
31,3059,-0.295971,0.210072,0.727317,366.92,-307.28,-1602.73
32,3159,-0.298882,0.203164,0.760441,111.91,95.71,-84.74
33,3259,-0.289949,0.200863,0.767375,6038.91,3048.71,-634.74
34,3359,-0.321651,0.163531,0.780537,-6714.11,9510.69,-3132.76
35,3469,-0.333930,0.234174,0.718283,1685.92,-581.28,913.27
36,3569,-0.323787,0.214477,0.759885,-2105.09,-13196.29,3364.26
37,3669,-0.291123,0.203283,0.786696,-2782.09,-12522.29,5680.26
38,3769,-0.207420,0.167932,0.806189,-1825.10,-587.30,5997.25
39,3879,-0.165460,0.123675,0.837498,-391.08,-365.28,1026.27
40,3979,-0.135158,0.114914,0.864972,-87.09,62.71,-213.74
41,4079,-0.115316,0.101058,0.884882,-9.09,3.71,-91.74
42,4189,-0.098268,0.087614,0.901531,4.91,-16.29,55.26
43,4289,-0.082421,0.077542,0.916763,5.91,1.71,-29.74
44,4389,-0.071809,0.067442,0.929270,0.89,-5.31,-14.76
45,4489,-0.061323,0.059444,0.939847,4.90,-1.30,10.25
46,4589,-0.052684,0.052352,0.948782,5.91,0.71,-26.74
47,4699,-0.045030,0.046782,0.956450,-1.08,-8.28,22.27
48,4799,-0.038818,0.042248,0.962987,-3.09,7.71,-0.74
49,4899,-0.033427,0.038102,0.968121,-12.08,-16.28,18.27
50,4999,-0.027984,0.034853,0.972724,4.90,-5.30,-1.75
1,0,-0.002794,0.075763,0.980265,-0.10,-17.30,32.25
2,99,-0.005059,0.140234,0.962703,0.90,-7.30,15.25
3,199,-0.006784,0.194778,0.948013,-11.11,-1.31,-14.76
4,299,-0.009054,0.240647,0.934428,-4.09,-6.29,23.26
5,399,-0.010326,0.280184,0.922954,-52.12,11.68,-20.77
6,499,-0.011718,0.313772,0.913988,-9.11,-14.31,27.24
7,599,-0.012297,0.342231,0.906349,-29.10,-1.30,3.25
8,699,-0.013906,0.366622,0.900369,-14.11,-4.31,-5.76
9,799,-0.014230,0.387575,0.894827,6.89,-9.31,11.24
10,899,-0.014542,0.405293,0.890099,-1.10,3.70,-18.75
11,999,-0.015485,0.420682,0.885897,25.89,-15.31,14.24
12,1109,-0.047359,0.435100,0.800660,-1474.11,-720.31,432.24
13,1209,-0.117171,0.173796,0.990004,-18207.11,1538.69,333.24
14,1309,-0.167282,0.168795,1.074929,-18714.12,1216.68,-1668.77
15,1419,-0.127498,0.105768,1.085868,-7629.11,247.69,-2264.76
16,1519,-0.123674,0.080668,1.078301,-377.11,1241.69,-197.76
17,1619,-0.114930,0.062573,1.065406,86.89,-360.31,232.24
18,1719,-0.109091,0.045289,1.055434,-22.12,-36.32,15.23
19,1829,-0.101528,0.031348,1.047122,-20.11,-103.31,43.24
20,1929,-0.094165,0.020102,1.039618,-7.10,-60.30,24.25
21,2029,-0.088694,0.010251,1.033642,-5.11,-39.31,17.24
22,2139,-0.088090,0.040897,0.994963,-4626.10,-3591.30,430.25
23,2239,-0.149430,0.017178,1.041920,2630.90,-13354.30,3722.25
24,2339,-0.140247,0.009687,1.027249,2011.90,-14791.30,10025.25
25,2439,-0.071448,-0.006951,0.961954,-227.09,-11930.29,17181.26
26,2539,0.045954,-0.077107,1.071522,3051.89,7831.69,18768.24
27,2649,0.103466,-0.103450,1.021905,1342.89,1278.69,5639.24
28,2749,0.135762,-0.143420,1.008259,1330.89,4835.69,1529.24
29,2849,0.033044,-0.135134,1.063421,5576.90,6279.70,2319.25
30,2949,0.041882,-0.131734,1.049150,6663.89,9697.69,555.24
31,3059,0.043627,-0.125237,1.033688,13073.90,18864.70,2408.25
32,3159,0.085925,-0.119422,1.032173,2228.91,-812.29,-3608.74
33,3259,0.011941,-0.073518,1.015504,385.90,-161.30,-1036.75
34,3359,-0.041460,-0.041293,1.002818,-29.10,-38.30,60.25
35,3469,-0.242985,0.053261,0.972443,-2059.10,-6053.30,-2844.75
36,3569,-0.290465,0.038839,0.973632,-10506.09,4571.71,-4785.74
37,3669,-0.293910,0.023393,0.952616,459.90,-8485.30,-202.75
38,3769,-0.291399,0.016014,0.924589,-1531.11,-15405.31,1473.24
39,3879,-0.251509,0.020161,0.905564,790.90,-5514.30,3453.25
40,3979,-0.207421,-0.009767,0.928248,-262.08,-44.28,1506.27
41,4079,-0.187964,-0.012740,0.918030,-398.09,-361.29,283.26
42,4189,-0.162765,0.003136,0.923994,48.91,-12.29,41.26
43,4289,-0.140723,0.004143,0.937523,39.92,0.72,-59.73
44,4389,-0.120870,0.003570,0.947338,-5.11,-1.31,-26.76
45,4489,-0.102312,0.006415,0.954508,0.90,7.70,-30.75
46,4589,-0.088953,0.006216,0.961958,8.91,4.71,1.26
47,4699,-0.075841,0.007181,0.968034,2.91,-11.29,24.26
48,4799,-0.065171,0.007215,0.972595,7.91,-7.29,7.26
49,4899,-0.055315,0.007298,0.976581,1.90,3.70,8.25
50,4999,-0.048659,0.008577,0.980024,2.88,0.68,-2.77
1,0,-0.008562,0.069024,0.982865,-122.10,38.70,-101.75
2,99,-0.016390,0.127493,0.968172,44.88,-24.32,37.23
3,199,-0.021395,0.178162,0.955005,-66.11,4.69,-17.76
4,299,-0.027425,0.220664,0.944491,-39.10,-1.30,-17.75
5,399,-0.031233,0.257284,0.935042,25.89,-29.31,51.24
6,499,-0.035586,0.288137,0.927083,-61.11,14.69,-53.76
7,599,-0.038591,0.313831,0.920812,78.89,-22.31,62.24
8,699,-0.040413,0.336494,0.915262,-2.12,11.68,-24.77
9,799,-0.043536,0.354861,0.911021,20.89,3.69,-17.76
10,899,-0.045054,0.371316,0.906335,56.91,-7.29,15.26
11,999,-0.046895,0.384917,0.903067,-14.11,14.69,-26.76
12,1109,-0.048240,0.396607,0.899941,59.89,-23.31,42.24
13,1209,-0.053045,0.426172,0.808679,-26994.11,1921.69,250.24
14,1309,-0.079578,0.439180,0.755057,-19101.09,-340.29,1407.26
15,1419,-0.156257,0.249426,0.951241,-5400.10,-3171.30,-330.75
16,1519,-0.155864,0.179047,1.041414,-6577.11,-1899.31,-2339.76
17,1619,-0.132020,0.142936,1.027203,400.89,885.69,-137.76
18,1719,-0.112869,0.105394,1.024646,-50.11,-7.31,-4.76
19,1829,-0.097213,0.076102,1.022308,10.89,-17.31,44.24
20,1929,-0.081855,0.052339,1.018745,-11.11,-11.31,9.24
21,2029,-0.069662,0.033349,1.014765,0.89,-9.31,18.24
22,2139,-0.068946,0.024074,1.013891,-30.09,-93.29,-15.74
23,2239,-0.088443,0.012217,1.003883,-5394.09,-22868.29,1725.26
24,2339,0.069832,-0.077843,1.085097,-4141.11,-13290.31,10020.24
25,2439,0.171187,-0.128172,1.060068,4480.89,-6535.31,8902.24
26,2539,0.225203,-0.130138,1.012994,3237.89,5829.69,9419.24
27,2649,0.254034,-0.136680,0.980744,-675.11,1905.69,1495.24
28,2749,0.264752,-0.146342,0.974573,252.91,-477.29,-163.74
29,2849,0.299662,-0.132930,0.929428,-150.10,22248.70,6095.25
30,2949,0.278396,-0.148263,0.945090,5342.90,7520.70,531.25
31,3059,0.255430,-0.152891,0.958512,9208.89,12869.69,1092.24
32,3159,0.195205,-0.098012,0.997130,-6474.09,-12343.29,-1835.74
33,3259,0.106716,-0.060813,1.017340,127.91,-304.29,-1463.74
34,3359,0.047631,-0.029542,0.999581,-39.11,-112.31,214.24
35,3469,-0.161307,0.065227,0.972731,-2058.10,-2378.30,-3070.75
36,3569,-0.216333,0.068676,0.959980,-11126.08,6823.72,-4148.73
37,3669,-0.261366,0.028577,0.968641,-101.11,-8730.31,134.24
38,3769,-0.301878,0.012016,0.946890,-2021.10,-15069.30,1814.25
39,3879,-0.251517,0.003670,0.951912,-399.10,-5324.30,2270.25
40,3979,-0.200964,-0.016058,0.950597,3.91,-437.29,1752.26
41,4079,-0.169457,-0.016933,0.970535,-244.10,-110.30,91.25
42,4189,-0.150055,-0.013813,0.975673,4.91,-47.29,46.26
43,4289,-0.127228,-0.010448,0.980919,8.90,2.70,-26.75
44,4389,-0.107826,-0.007733,0.983748,8.89,-7.31,58.24
45,4489,-0.092963,-0.005756,0.986061,4.91,-4.29,0.26
46,4589,-0.078351,-0.003434,0.988724,-5.09,-1.29,-30.74
47,4699,-0.065621,-0.001405,0.990748,5.91,-1.29,2.26
48,4799,-0.056869,0.000502,0.992708,17.90,7.70,21.25
49,4899,-0.049650,0.001244,0.994061,-26.11,-13.31,-38.76
50,4999,-0.042872,0.002589,0.995359,8.90,1.70,-5.75
1,0,-0.002061,0.075433,0.980503,-57.09,-16.29,42.26
2,99,-0.003723,0.139258,0.962667,-54.11,1.69,-0.76
3,199,-0.006471,0.193345,0.948385,-19.09,-18.29,16.26
4,299,-0.007470,0.239630,0.935239,15.91,-18.29,7.26
5,399,-0.009180,0.279631,0.923460,-26.09,0.71,-32.74
6,499,-0.011219,0.313395,0.913449,4.93,-14.27,32.28
7,599,-0.011671,0.342167,0.905122,-14.08,-7.28,0.27
8,699,-0.013135,0.365744,0.898447,-29.08,-0.28,-8.73
9,799,-0.020331,0.388568,0.755865,-7129.10,177.70,-540.75
10,899,0.015740,0.374661,0.672720,8169.91,942.71,999.26
11,999,0.014339,0.341747,0.737270,-13575.08,113.72,-819.73
12,1109,0.050904,0.256549,0.797978,-5190.10,4217.70,-1929.75
13,1209,0.022274,0.198725,0.820925,-488.09,156.71,-657.74
14,1309,0.012733,0.161549,0.851818,40.89,46.69,-29.76
15,1419,0.005026,0.128869,0.872218,5.90,-6.30,6.25
16,1519,-0.000500,0.099535,0.890437,2.91,-4.29,10.26
17,1619,-0.005361,0.075132,0.905886,7.92,1.72,1.27
18,1719,-0.010830,0.054884,0.918249,5.90,-5.30,-4.75
19,1819,-0.031262,0.039632,0.918376,-4852.09,-7247.29,830.26
20,1929,-0.013107,0.020973,0.897115,305.91,-18553.29,5323.26
21,2029,0.012268,0.004363,0.873898,-1529.10,-12838.30,13235.25
22,2139,0.051707,-0.039255,0.870496,8857.91,-9035.29,9188.26
23,2239,0.145473,-0.083122,0.920999,2974.92,3858.72,9762.27
24,2339,0.174289,-0.103802,0.925144,-1344.08,2411.72,521.27
25,2439,0.248220,-0.130370,0.928686,-1221.09,12235.71,4440.26
26,2539,0.236922,-0.154766,0.933125,5519.91,8856.71,2076.26
27,2649,0.211463,-0.152285,0.941420,8692.92,12068.72,990.27
28,2749,0.190005,-0.133696,0.921555,16815.92,24565.72,3777.27
29,2849,0.100647,-0.076661,0.909540,359.90,-938.30,-3688.75
30,2949,0.026580,-0.040138,0.911724,60.92,-35.28,10.27
31,3059,-0.142305,0.067244,0.900177,-1643.09,-702.29,-2717.74
32,3159,-0.184800,0.074967,0.899443,-11498.10,7328.70,-4269.75
33,3259,-0.251482,0.036195,0.923686,-403.11,-8377.31,-892.76
34,3359,-0.278755,0.018455,0.900786,-1966.09,-12719.29,677.26
35,3469,-0.219704,0.011542,0.913054,-118.09,-5526.29,2289.26
36,3569,-0.183060,-0.006583,0.904164,-217.07,-122.27,1770.28
37,3669,-0.155886,-0.034551,0.948279,-299.08,-416.28,689.27
38,3769,-0.126855,-0.011887,0.962011,-16.08,-14.28,232.27
39,3879,-0.113037,-0.008279,0.968299,-1.08,21.72,-53.73
40,3979,-0.096477,-0.005725,0.971538,7.92,4.72,-45.73
41,4079,-0.083077,-0.003334,0.975573,-10.08,6.72,-39.73
42,4189,-0.070059,-0.000185,0.979406,-0.10,4.70,-20.75
43,4289,-0.060659,0.002821,0.982792,8.93,2.73,-18.72
44,4389,-0.052010,0.004735,0.985633,6.91,-1.29,12.26
45,4489,-0.043743,0.005759,0.987866,4.92,-8.28,19.27
46,4589,-0.038090,0.006262,0.990074,2.91,-12.29,34.26
47,4699,-0.032826,0.006159,0.991841,1.91,-10.29,13.26
48,4799,-0.028352,0.006803,0.992611,23.92,12.72,0.27
49,4899,-0.025336,0.006821,0.993778,-1.07,-11.27,0.28
50,4999,-0.021821,0.007073,0.994807,-5.09,-7.29,-17.74
1,0,-0.002941,0.075158,0.980173,2.90,-3.30,-7.75
2,99,-0.005183,0.139227,0.962479,28.93,-15.27,25.28
3,199,-0.006595,0.193739,0.947749,-18.09,13.71,-26.74
4,299,-0.008106,0.239819,0.935431,34.92,-6.28,18.27
5,399,-0.009500,0.279078,0.924247,8.93,0.73,-10.72
6,499,-0.010814,0.312192,0.916332,-0.09,-7.29,12.26
7,599,-0.011820,0.340870,0.909038,6.93,-17.27,3.28
8,699,-0.012218,0.364935,0.903332,3.93,-1.27,7.28
9,799,-0.012978,0.385573,0.898116,28.91,-8.29,8.26
10,899,-0.013183,0.402823,0.893316,5.94,-2.26,-11.71
11,999,-0.013707,0.417430,0.889346,-5.08,-4.28,-1.73
12,1109,-0.014261,0.430176,0.886062,0.92,-9.28,10.27
13,1209,-0.032896,0.473236,0.783315,-25001.07,-1252.27,34.28
14,1309,-0.040643,0.495738,0.725312,-14259.09,2709.71,166.26
15,1419,-0.058672,0.405533,0.925958,-13929.09,-12057.29,-2904.74
16,1519,-0.053343,0.339167,0.937123,-1201.08,2692.72,-756.73
17,1619,-0.039914,0.285667,0.935572,118.91,-194.29,429.26
18,1719,-0.041957,0.234681,0.942805,5.92,-24.28,-5.73
19,1829,-0.044389,0.193248,0.951846,-22.06,-14.26,12.29
20,1929,-0.044845,0.157828,0.960319,-22.07,-22.27,10.28
21,2029,-0.044738,0.127849,0.967447,6.94,-12.26,8.29
22,2139,-0.064661,0.114177,0.968910,-29.07,-318.27,27.28
23,2239,-0.101572,0.078295,1.017047,1462.94,-5550.26,2990.29
24,2339,-0.100830,0.075462,0.965714,92.92,-11211.28,8167.27
25,2439,-0.047758,0.049140,0.921203,-2633.07,-13607.27,14860.28
26,2539,0.006966,0.019992,0.814814,8401.93,-772.27,12561.28
27,2649,0.099515,-0.021776,0.852392,894.93,4026.73,8286.28
28,2749,0.111164,-0.053964,0.882008,-452.06,1020.74,799.29
29,2849,0.157670,-0.016322,0.790525,841.94,23781.74,6413.29
30,2949,0.157117,-0.034040,0.820174,6153.94,8801.74,344.29
31,3059,0.146119,-0.042965,0.840121,11439.93,15755.73,1901.28
32,3159,0.044265,0.006778,0.789235,-1051.09,-115.29,-4420.74
33,3259,-0.022388,0.039209,0.799302,380.93,-214.27,-1705.72
34,3359,-0.066849,0.052639,0.818901,20.93,53.73,-69.72
35,3469,-0.097683,0.088829,0.815473,5561.93,5601.73,-1005.72
36,3569,-0.063375,0.101006,0.920097,-496.07,6969.73,-343.72
37,3669,-0.110366,0.185916,0.885211,146.94,1696.74,-2160.71
38,3769,-0.162486,0.155990,0.931145,93.93,-7913.27,972.28
39,3879,-0.062098,0.067712,1.070493,153.92,-9779.28,2028.27
40,3979,-0.047483,0.044017,1.033281,-587.07,-527.27,1439.28
41,4079,-0.043722,-0.002911,1.076029,-561.08,-294.28,265.27
42,4189,-0.038565,0.004863,1.068034,-53.06,56.74,-487.71
43,4289,-0.029110,0.004640,1.056826,-7.06,-13.26,77.29
44,4389,-0.024771,0.005513,1.048398,3.93,28.73,-90.72
45,4489,-0.020828,0.007720,1.041179,-8.07,5.73,-29.72
46,4589,-0.018134,0.008369,1.034842,18.95,-3.25,66.30
47,4699,-0.016285,0.009067,1.030132,5.93,-10.27,44.28
48,4799,-0.014841,0.010210,1.025763,1.93,2.73,-18.72
49,4899,-0.012148,0.010467,1.022232,-3.06,-8.26,5.29
50,4999,-0.009220,0.010081,1.018718,3.92,2.72,19.27
1,0,-0.001713,0.056464,0.988523,9.93,-7.27,-2.72
2,99,-0.003242,0.104074,0.978915,4.95,2.75,-0.70
3,199,-0.004267,0.143865,0.971718,3.94,-10.26,6.29
4,299,-0.005174,0.178200,0.965967,4.95,-4.25,-7.70
5,399,-0.007044,0.206689,0.960310,6.96,-2.24,10.31
6,499,-0.008011,0.230905,0.955831,15.95,-5.25,12.30
7,599,-0.008723,0.251635,0.952060,5.96,0.76,-0.69
8,709,-0.008834,0.269457,0.948397,2.95,-13.25,-1.70
9,809,-0.009239,0.284624,0.945595,10.96,-2.24,4.31
10,909,-0.013593,0.266754,0.876801,-2278.04,-966.24,489.31
11,1009,-0.012663,0.275679,0.863095,-5789.06,1332.74,-1157.71
12,1119,-0.038678,0.262099,0.871166,-18755.05,-1214.25,-1501.70
13,1219,-0.063904,0.210218,0.942680,-6975.04,3684.76,-1270.69
14,1319,-0.056616,0.157549,0.947199,-962.05,46.75,-136.70
15,1429,-0.051869,0.123529,0.954062,-20.05,-16.25,18.30
16,1529,-0.047687,0.096114,0.961140,25.95,15.75,-15.70
17,1629,-0.043162,0.073616,0.966845,12.95,-7.25,-1.70
18,1729,-0.037814,0.053450,0.971566,1.96,-6.24,-7.69
19,1839,-0.034147,0.036912,0.976000,6.95,5.75,-16.70
20,1939,-0.001587,-0.017611,0.990957,-5435.06,-7444.26,513.29
21,2039,0.287097,-0.232376,1.151757,-2020.04,-10165.24,3084.31
22,2149,0.318712,-0.217318,1.073187,2534.96,-11801.24,4873.31
23,2249,0.330076,-0.208511,1.032294,3773.96,-789.24,6687.31
24,2349,0.344038,-0.196704,0.995906,2280.97,1837.77,5230.32
25,2449,0.329026,-0.199979,0.993741,-955.04,1641.76,449.31
26,2549,0.372315,-0.156401,0.920966,4188.98,994.78,-35.67
27,2659,0.331400,-0.131060,0.830415,8057.97,6980.77,1478.32
28,2759,0.304496,-0.134203,0.865232,7385.96,10567.76,701.31
29,2859,0.270787,-0.123234,0.870162,14419.94,20810.74,3711.29
30,2959,0.184310,-0.065954,0.828009,3696.96,3383.76,-1650.69
31,3069,0.099086,-0.027007,0.835483,230.96,-240.24,-1394.69
32,3169,0.048893,0.006830,0.830465,5501.96,5592.76,-725.69
33,3269,0.068594,0.019277,0.943955,-903.05,7426.75,-9.70
34,3369,0.005525,0.117509,0.902745,1639.96,1752.76,-1746.69
35,3479,-0.015857,0.130932,0.909739,-529.04,-8749.24,577.31
36,3579,0.004036,0.117311,0.896622,-1435.03,-14335.23,282.32
37,3679,0.000657,0.074771,0.910815,-235.02,-903.22,1374.33
38,3779,0.004943,0.057654,0.900650,-481.05,-242.25,277.30
39,3889,-0.004413,0.065755,0.920867,-180.02,-89.22,608.33
40,3989,-0.003778,0.053158,0.931277,191.98,112.78,266.33
41,4089,-0.005472,0.048164,0.940619,30.96,8.76,-41.69
42,4199,-0.004807,0.041172,0.948487,-1.03,-1.23,8.32
43,4299,-0.005395,0.036108,0.957738,2.96,-6.24,36.31
44,4399,-0.001811,0.032884,0.963606,-3.02,-12.22,-13.67
45,4499,-0.005430,0.029851,0.969253,11.97,-3.23,-12.68
46,4599,-0.003544,0.026814,0.974053,10.97,-5.23,29.32
47,4709,-0.003479,0.023867,0.978682,5.96,-6.24,-7.69
48,4809,-0.005804,0.021033,0.980676,-15.02,-11.22,-11.67
49,4909,-0.004595,0.019319,0.984110,3.97,-7.23,1.32
50,5009,-0.003530,0.017020,0.986113,21.96,8.76,52.31
1,0,-0.002920,0.072981,0.981383,-128.03,91.77,-211.68
2,99,-0.006536,0.134301,0.966145,150.01,-64.19,136.36
3,199,-0.005875,0.188602,0.951635,6.00,5.80,-38.65
4,299,-0.009305,0.232689,0.941006,-66.00,30.80,-85.65
5,399,-0.009436,0.271207,0.930707,108.02,-73.18,145.37
6,499,-0.010537,0.304148,0.921477,-113.99,35.81,-126.64
7,599,-0.014183,0.330665,0.914328,43.00,-27.20,52.35
8,699,-0.013712,0.355053,0.906749,11.98,-22.22,29.33
9,799,-0.014885,0.374648,0.901973,-79.00,30.80,-78.65
10,899,-0.015572,0.391780,0.897767,85.01,-50.19,98.36
11,999,-0.014965,0.406690,0.893075,-61.99,25.81,-61.64
12,1109,-0.017104,0.418467,0.890113,17.01,-10.19,30.36
13,1209,-0.016817,0.430088,0.886551,14.01,-20.19,14.36
14,1309,-0.017653,0.438721,0.884036,-64.99,29.81,-66.64
15,1419,-0.017814,0.446316,0.882154,52.01,-42.19,78.36
16,1519,-0.017383,0.453174,0.881086,-51.99,13.81,-54.64
17,1619,-0.018080,0.457117,0.880288,12.00,-15.20,10.35
18,1719,-0.016602,0.462391,0.878859,36.00,-14.20,19.35
19,1829,-0.017654,0.466325,0.878230,-8.00,6.80,-48.65
20,1929,-0.017852,0.469559,0.876908,72.00,-30.20,41.35
21,2029,-0.017837,0.472656,0.875821,-22.99,7.81,-39.64
22,2139,-0.016231,0.518135,0.775856,-28223.00,-141.20,634.35
23,2239,-0.007871,0.503911,0.735746,-17507.98,3445.82,142.37
24,2339,-0.024002,0.388092,0.934828,-12406.00,-12585.20,-1544.65
25,2439,-0.026306,0.330881,0.970738,-6225.00,-1026.20,-2442.65
26,2539,-0.021287,0.276904,0.970445,125.00,185.80,-146.65
27,2649,-0.019347,0.225074,0.973400,43.00,9.80,-43.65
28,2749,-0.020042,0.181713,0.979519,51.00,29.80,-25.65
29,2849,-0.019057,0.145223,0.983457,3.01,-12.19,-4.64
30,2949,-0.017983,0.114115,0.986144,-4.99,-12.19,15.36
31,3059,-0.019468,0.089175,0.989766,-4.00,-12.20,-5.65
32,3159,-0.070535,0.077680,0.992716,-4469.99,-13236.19,2189.36
33,3259,-0.032350,0.026180,0.981234,-4750.00,-16406.20,9986.35
34,3359,-0.023276,0.014064,0.945419,4650.01,-5789.19,9721.36
35,3469,0.085420,-0.005647,0.906058,4266.00,4422.80,9141.35
36,3569,0.129966,-0.037525,0.914716,759.01,1777.81,2804.36
37,3669,0.155325,-0.063486,0.920922,-43.98,-49.18,-31.63
38,3769,0.221319,-0.072626,0.905396,-154.00,20348.80,5125.35
39,3879,0.221493,-0.098926,0.917724,6375.01,9006.81,816.36
40,3979,0.203002,-0.106339,0.931993,10198.01,14319.81,1268.36
41,4079,0.118088,-0.062231,0.791924,-793.00,1270.80,-4727.65
42,4189,0.044776,-0.017506,0.793972,492.01,-302.19,-1916.64
43,4289,0.001102,0.006008,0.820102,-151.98,-219.18,180.37
44,4389,-0.170202,0.074646,0.833176,-5455.00,-14042.20,-3141.65
45,4489,-0.216969,0.054216,0.835371,-9169.98,2259.82,-4823.63
46,4589,-0.204884,0.058128,0.804004,1601.02,-7640.18,891.37
47,4699,-0.165333,0.058834,0.792411,-855.98,-10321.18,575.37
48,4799,-0.149055,0.065953,0.769190,-69.00,-5621.20,1996.35
49,4899,-0.122548,0.032142,0.794735,-8.98,-200.18,2043.37
50,4999,-0.098387,0.019919,0.841167,-387.98,-57.18,343.37
1,0,-0.005098,0.072890,0.980468,121.01,-69.19,135.36
2,99,-0.006903,0.136879,0.961980,-8.95,12.85,-38.60
3,199,-0.012228,0.189220,0.948828,-46.96,26.84,-70.61
4,299,-0.014246,0.235265,0.936569,126.04,-62.16,105.39
5,399,-0.016199,0.273983,0.926076,-53.97,48.83,-105.62
6,499,-0.019836,0.306216,0.918548,70.06,-31.14,39.41
7,599,-0.019760,0.334895,0.910428,51.04,-7.16,28.39
8,699,-0.021638,0.357935,0.905193,-36.97,32.83,-74.62
9,799,-0.022500,0.378308,0.899955,84.05,-42.15,84.40
10,899,-0.033597,0.428418,0.792964,-23319.95,148.85,851.40
11,999,-0.040942,0.472312,0.719728,-13208.96,372.84,841.39
12,1109,-0.104369,0.327450,0.921213,-14453.96,-12476.16,-1531.61
13,1209,-0.092547,0.275985,0.951073,-7297.95,-1133.15,-2422.60
14,1319,-0.085703,0.224769,0.961182,271.04,426.84,-155.61
15,1419,-0.072982,0.178379,0.969299,-16.95,-14.15,-23.60
16,1519,-0.064275,0.139772,0.975704,-6.96,6.84,-30.61
17,1619,-0.054457,0.108823,0.978603,1.05,-14.15,-1.60
18,1719,-0.047155,0.081729,0.982038,7.06,-10.14,8.41
19,1829,-0.046955,0.061117,0.989370,-10.95,10.85,-12.60
20,1929,-0.079487,0.041490,0.982529,-9237.95,-24773.15,900.40
21,2029,-0.011833,-0.020236,0.961388,5675.06,-15947.14,3887.41
22,2139,0.054132,-0.043773,0.940141,3508.05,-3535.15,6536.40
23,2239,0.119212,-0.058909,0.917686,2240.05,6536.85,8320.40
24,2339,0.157116,-0.076864,0.903708,-69.94,1139.86,1887.41
25,2439,0.182743,-0.095056,0.910101,387.05,-600.15,-404.60
26,2539,0.233548,-0.107571,0.904951,-1120.94,20152.86,5417.41
27,2649,0.221434,-0.128170,0.914582,6394.06,9097.86,966.41
28,2749,0.196416,-0.127204,0.928517,10162.05,14350.85,1386.40
29,2849,0.110844,-0.077731,0.793566,-621.95,815.85,-4538.60
30,2949,0.030783,-0.033355,0.804871,1127.04,-181.16,-2167.61
31,3059,-0.014289,-0.003837,0.821933,-147.94,-130.14,216.41
32,3159,-0.221148,0.084351,0.824204,-2194.93,-3815.13,-2774.58
33,3259,-0.275305,0.081455,0.844134,-10711.94,5984.86,-4427.59
34,3359,-0.302552,0.044184,0.867172,620.06,-7763.14,-464.59
35,3469,-0.251316,0.038267,0.862016,-682.94,-15088.14,871.41
36,3569,-0.221351,0.015367,0.910661,-622.93,-6542.13,2787.42
37,3669,-0.188887,-0.023526,0.969606,-286.94,-465.14,2599.41
38,3769,-0.159773,-0.039447,1.004383,431.05,-410.15,2132.40
39,3879,-0.137187,-0.024982,1.010945,12.05,8.85,-18.60
40,3979,-0.119105,-0.018217,1.008504,-3.94,38.86,-220.59
41,4079,-0.099158,-0.015067,1.007472,2.06,14.86,-58.59
42,4189,-0.086487,-0.010045,1.006595,-0.93,-8.13,-11.58
43,4289,-0.074088,-0.006564,1.006124,1.07,-17.13,19.42
44,4389,-0.063054,-0.003953,1.004991,3.06,2.86,14.41
45,4489,-0.053950,-0.001643,1.004651,5.06,2.86,0.41
46,4589,-0.047493,0.000504,1.004362,8.05,-1.15,9.40
47,4699,-0.042298,0.001286,1.002505,5.06,-24.14,14.41
48,4799,-0.032425,0.000998,1.003068,-14.93,-27.13,-41.58
49,4899,-0.027897,0.000680,1.002376,-5.94,5.86,-96.59
50,4999,-0.023774,0.002186,1.001769,-0.93,1.87,-40.58
1,0,-0.002258,0.077194,0.978619,87.08,-49.12,113.43
2,99,-0.004360,0.142516,0.960793,-113.93,41.87,-112.58
3,199,-0.008162,0.196739,0.946319,67.06,-32.14,60.41
4,299,-0.008152,0.244257,0.932605,58.05,-28.15,51.40
5,399,-0.011055,0.284062,0.922048,-91.93,40.87,-106.58
6,499,-0.012992,0.318024,0.912140,79.05,-41.15,106.40
7,599,-0.012990,0.347661,0.902766,-75.94,13.86,-37.59
8,699,-0.015497,0.371625,0.896556,-27.94,1.86,-7.59
9,799,-0.015943,0.393368,0.890527,43.07,-28.13,68.42
10,899,-0.016542,0.411484,0.885347,-72.92,22.88,-84.57
11,999,-0.017857,0.426296,0.881658,51.08,-26.12,64.43
12,1109,-0.017399,0.439656,0.877644,-28.92,8.88,-25.57
13,1209,-0.019080,0.450004,0.874415,-23.94,5.86,-29.59
14,1309,-0.012195,0.466015,0.712131,-12241.93,699.87,119.42
15,1419,-0.005978,0.498978,0.588691,-512.94,7916.86,1962.41
16,1519,0.011118,0.432130,0.641769,-12656.92,1504.88,-50.57
17,1619,-0.024722,0.375950,0.691518,-3867.92,2279.88,-459.57
18,1719,-0.034716,0.291063,0.752573,-676.91,-125.11,81.44
19,1829,-0.037076,0.237366,0.793409,1.07,4.87,9.42
20,1929,-0.035769,0.192529,0.824495,-41.93,-25.13,-19.58
21,2029,-0.032789,0.154418,0.848831,7.08,-6.12,27.43
22,2139,-0.031172,0.122647,0.871055,-3.92,-10.12,7.43
23,2239,-0.029926,0.094524,0.889670,20.08,12.88,-23.57
24,2339,-0.063144,0.088014,0.898553,-3652.92,-7355.12,-234.57
25,2439,-0.030314,0.020939,0.936206,-1261.93,-6926.13,5877.42
26,2539,0.047525,-0.034060,0.920842,4486.09,-11793.11,7175.44
27,2649,0.122880,-0.053893,0.897492,3103.07,989.87,6988.42
28,2749,0.167174,-0.061432,0.879915,1370.07,2050.87,4077.42
29,2849,0.189938,-0.081865,0.888083,-448.92,896.88,612.43
30,2949,0.215952,-0.088521,0.854595,-90.93,15948.87,4026.42
31,3059,0.207540,-0.111117,0.869802,6075.08,7934.88,866.43
32,3159,0.187976,-0.111280,0.884742,10025.08,13983.88,1180.43
33,3259,0.271615,-0.103893,0.856571,-2604.92,-4590.12,-4895.57
34,3359,0.165499,-0.061761,0.884592,913.09,-148.11,-2369.56
35,3469,0.103388,-0.031938,0.899272,-115.93,-165.13,163.42
36,3569,-0.096000,0.051530,0.891334,-4640.92,-11405.12,-3205.57
37,3669,-0.165889,0.026787,0.914158,-9951.93,3482.87,-4640.58
38,3769,-0.163589,0.017620,0.876979,1579.07,-8459.13,-175.58
39,3879,-0.099963,0.037038,0.844059,-622.93,-11767.13,-254.58
40,3979,-0.102003,0.040525,0.823657,308.09,-5760.11,1140.44
41,4079,-0.079585,-0.002819,0.886442,-89.93,-324.13,1980.42
42,4189,-0.060732,-0.023292,0.944662,-226.93,-76.13,1156.42
43,4289,-0.049632,-0.003761,0.949380,36.07,-25.13,-96.58
44,4389,-0.044518,0.000352,0.957162,13.07,5.87,-75.58
45,4489,-0.038579,0.000131,0.964344,-0.93,-7.13,-34.58
46,4589,-0.033603,0.002617,0.970303,-1.92,-5.12,-26.57
47,4699,-0.028935,0.002606,0.974671,2.07,-11.13,27.42
48,4799,-0.023960,0.003676,0.978550,14.07,-4.13,5.42
49,4899,-0.021085,0.003396,0.981700,0.09,1.89,-23.56
50,4999,-0.019155,0.004184,0.985110,11.08,-3.12,-11.57
1,0,-0.002551,0.074338,0.980816,-174.92,35.88,-108.57
2,99,-0.006147,0.137159,0.965408,-5.92,-31.12,59.43
3,199,-0.006696,0.191783,0.951248,-21.93,-30.13,50.42
4,299,-0.009634,0.236602,0.939634,-100.92,12.88,-53.57
5,399,-0.011600,0.275724,0.929688,35.08,-25.12,86.43
6,499,-0.011825,0.308941,0.921179,-62.92,17.88,-42.57
7,599,-0.014121,0.336297,0.914222,-20.91,-6.11,2.44
8,699,-0.014536,0.360575,0.906861,5.07,-33.13,45.42
9,799,-0.015712,0.380790,0.901026,-90.92,11.88,-68.57
10,899,-0.018689,0.443694,0.799331,-26241.91,-162.11,799.44
11,999,-0.001517,0.429963,0.741950,-14688.92,1288.88,394.43
12,1109,0.081451,0.390917,0.764825,-11091.92,-9079.12,-1708.57
13,1209,0.058461,0.324439,0.840610,-4955.92,-785.12,-2453.57
14,1309,0.046812,0.266231,0.860642,-24.91,215.89,-189.56
15,1419,0.035335,0.214831,0.881149,-19.91,10.89,-53.56
16,1519,0.025525,0.174601,0.897884,49.08,30.88,-31.57
17,1619,0.017736,0.139070,0.913006,10.09,4.89,-7.56
18,1719,0.012763,0.109838,0.925201,9.09,-0.11,-6.56
19,1829,-0.008053,0.100812,0.930091,-150.91,-425.11,-51.56
20,1929,-0.069143,0.094476,0.912330,-7335.91,-17544.11,627.44
21,2029,-0.033710,0.017698,0.938176,3281.08,-16702.12,3650.43
22,2139,0.072288,-0.022313,0.934693,3640.09,-5883.11,6967.44
23,2239,0.133766,-0.037628,0.893701,2670.09,5404.89,7004.44
24,2339,0.160919,-0.066190,0.910513,491.09,1231.89,2408.44
25,2439,0.187404,-0.082852,0.914530,211.09,-327.11,59.44
26,2539,0.197210,-0.077660,0.867902,655.09,23044.89,4967.44
27,2649,0.188552,-0.087089,0.873423,6724.09,9689.89,510.44
28,2749,0.173118,-0.094024,0.890786,12862.10,18204.90,2230.45
29,2849,0.131014,-0.093747,1.032235,4068.10,5357.90,-1842.55
30,2949,0.037840,-0.043195,1.017664,461.09,-402.11,-2587.56
31,3059,-0.013343,-0.017218,1.006561,86.10,98.90,-117.55
32,3159,-0.063495,0.043333,0.942577,4141.10,3582.90,-1866.55
33,3259,-0.062692,0.114815,0.926623,-1744.91,10616.89,-1374.56
34,3359,-0.165207,0.141718,0.911049,-3543.90,-1565.10,-3081.55
35,3469,-0.203254,0.131426,0.923922,-1063.91,-9049.11,-432.56
36,3569,-0.158873,0.127932,0.906061,4204.10,-6121.10,1073.45
37,3669,-0.125159,0.102606,0.900200,709.11,-672.09,1882.46
38,3769,-0.098920,0.074706,0.910800,414.10,263.90,1955.45
39,3879,-0.082054,0.067526,0.927372,19.11,20.91,-61.54
40,3979,-0.069970,0.057889,0.940360,-8.89,-2.09,-42.54
41,4079,-0.061109,0.050759,0.948927,5.10,-6.10,19.45
42,4189,-0.050720,0.044296,0.956851,-1.89,-9.09,12.46
43,4289,-0.042660,0.039059,0.963476,5.10,-10.10,-23.55
44,4389,-0.036576,0.033802,0.969455,6.12,-9.08,-5.53
45,4489,-0.031845,0.029755,0.974409,-1.89,0.91,4.46
46,4589,-0.027128,0.026827,0.977650,2.11,0.91,-12.54
47,4699,-0.023063,0.023606,0.981466,3.10,0.90,14.45
48,4799,-0.019297,0.021106,0.984234,6.11,-13.09,-9.54
49,4899,-0.016224,0.019311,0.986935,4.10,-11.10,-8.55
50,4999,-0.014601,0.017034,0.989231,2.11,0.91,1.46
1,0,-0.002385,0.073917,0.979901,17.11,-8.09,-16.54
2,99,-0.002910,0.137882,0.964978,25.13,3.93,6.48
3,199,-0.005352,0.191667,0.950975,33.14,-3.06,0.49
4,299,-0.005816,0.237128,0.939531,39.14,4.94,7.49
5,399,-0.007603,0.275641,0.930242,28.13,-11.07,-12.52
6,499,-0.007491,0.308212,0.921889,7.14,-11.06,-22.51
7,599,-0.008917,0.336154,0.914533,-10.88,0.92,4.47
8,699,-0.010312,0.359996,0.907877,-9.87,-9.07,-1.52
9,799,-0.011388,0.380812,0.901835,-1.87,1.93,0.48
10,899,-0.010929,0.399017,0.896553,-1.87,-8.07,1.48
11,999,-0.011107,0.414235,0.891934,-0.89,-10.09,2.46
12,1109,-0.017593,0.441032,0.828939,-867.87,166.93,80.48
13,1209,-0.011039,0.264371,1.014044,-18481.87,7224.93,1705.48
14,1309,-0.103943,0.190417,1.084508,-22215.88,-283.08,-539.53
15,1419,-0.091413,0.190271,0.993342,-6844.86,2446.94,-1800.51
16,1519,-0.087831,0.135727,0.985081,-1086.88,-381.08,-1139.53
17,1619,-0.076309,0.108737,0.993222,31.12,26.92,57.47
18,1719,-0.067686,0.085302,0.993275,-27.85,-54.05,58.50
19,1829,-0.058251,0.063679,0.994693,-25.87,-12.07,26.48
20,1929,-0.052685,0.045684,0.995441,-13.86,-21.06,34.49
21,2029,-0.048265,0.030150,0.995527,-7.88,-19.08,19.47
22,2139,-0.077230,0.056570,0.945356,-4395.87,-6478.07,-533.52
23,2239,0.002118,-0.009450,0.986353,-13776.87,-31942.06,485.48
24,2339,0.115341,-0.036068,1.018198,4730.14,-8944.06,4384.49
25,2439,0.156135,-0.046187,0.973452,2740.13,-3532.07,6230.48
26,2539,0.185153,-0.060226,0.959039,771.14,5696.94,5938.49
27,2649,0.201101,-0.075712,0.950028,-4.87,697.93,1199.48
28,2749,0.255161,-0.082558,0.927502,590.15,927.95,890.50
29,2849,0.243287,-0.151787,1.067161,5745.14,5768.94,1629.49
30,2949,0.224113,-0.147038,1.058101,6634.16,9598.96,783.51
31,3059,0.201808,-0.137252,1.035165,14487.15,21066.95,4089.50
32,3159,0.201068,-0.125748,1.017501,2584.14,904.94,-2614.51
33,3259,0.112860,-0.080173,1.002834,522.13,-225.07,-1665.52
34,3359,0.049931,-0.036985,0.964714,5924.14,5339.94,-839.51
35,3469,0.027588,0.060920,0.922187,-2048.85,11050.95,-1459.50
36,3569,-0.090244,0.091752,0.914291,-4522.85,-2246.05,-3415.50
37,3669,-0.111647,0.096206,0.943579,-221.85,-8058.05,-1288.50
38,3769,-0.104205,0.040300,1.005918,2555.15,-8890.05,-957.50
39,3879,-0.082701,0.006000,1.019649,462.13,-811.07,1034.48
40,3979,-0.079876,-0.001110,0.989993,-500.86,-97.06,574.49
41,4079,-0.072072,0.019435,0.995676,-222.84,-74.04,736.51
42,4189,-0.058317,0.009688,0.997851,91.14,100.94,-93.51
43,4289,-0.052448,0.007610,0.998052,32.14,-14.06,115.49
44,4389,-0.044695,0.005917,0.998112,-0.87,-19.07,-10.52
45,4489,-0.037500,0.005760,0.998384,-6.86,-9.06,-21.51
46,4589,-0.032062,0.006450,0.999328,-1.87,-8.07,-21.52
47,4699,-0.027970,0.006616,0.999125,10.14,-9.06,22.49
48,4799,-0.024291,0.006226,0.999977,-1.85,-2.05,8.50
49,4899,-0.020852,0.006096,1.000005,1.15,-12.05,1.50
50,4999,-0.018167,0.006333,0.999755,-5.85,1.95,-21.50
1,0,-0.001303,0.074119,0.980689,57.15,-30.05,56.50
2,99,-0.003619,0.136553,0.965923,-6.83,34.97,-99.48
3,199,-0.005569,0.189385,0.952585,131.18,-17.02,59.53
4,299,-0.006274,0.234199,0.940643,8.17,38.97,-44.48
5,399,-0.009676,0.271504,0.930034,-1.84,-14.04,11.51
6,499,-0.009893,0.304880,0.920504,31.18,-42.02,50.53
7,599,-0.011232,0.333121,0.913045,-67.84,18.96,-63.49
8,699,-0.011545,0.356577,0.908096,22.18,-36.02,38.53
9,799,-0.015455,0.386055,0.884096,-220.81,351.99,-833.46
10,899,-0.022643,0.399208,0.885979,-252.83,267.97,-529.48
11,999,-0.023827,0.411726,0.885676,377.18,-188.02,407.53
12,1109,-0.021060,0.425240,0.882617,-75.81,59.99,-152.46
13,1209,-0.024075,0.430465,0.879413,13.18,58.98,-61.47
14,1309,0.027416,0.158381,1.056947,-31395.83,-3478.03,366.52
15,1419,-0.024618,0.158701,1.096953,-20006.82,-1469.02,-278.47
16,1519,-0.041746,0.093622,1.064253,-6995.81,-2655.01,-2559.46
17,1619,-0.046784,0.050354,1.102340,-2093.82,-1012.02,57.53
18,1719,-0.049583,0.031356,1.085623,-130.81,-42.01,58.54
19,1829,-0.048429,0.016580,1.073409,-11.82,-18.02,11.53
20,1929,-0.046659,0.005651,1.061544,-7.80,-2.00,-4.45
21,2029,-0.044094,-0.003858,1.051331,-1.81,-28.01,3.54
22,2139,-0.040760,-0.011411,1.044243,-1.82,-12.02,-8.47
23,2239,-0.053819,0.015715,1.015879,-3855.81,-2860.01,755.54
24,2339,-0.051077,-0.001292,1.014621,4525.19,-17252.01,4089.54
25,2439,-0.001925,-0.009394,0.992642,-1473.81,-16111.01,10475.54
26,2539,0.049283,-0.029153,0.918039,-4172.81,-9017.01,18024.54
27,2649,0.158161,-0.100239,0.948614,10573.20,898.00,10223.55
28,2749,0.187187,-0.115105,0.950708,-496.81,1808.99,2002.54
29,2849,0.218140,-0.136110,0.923941,4387.18,1136.98,-92.47
30,2949,0.201640,-0.148030,0.966962,8025.20,6130.00,709.55
31,3059,0.192614,-0.150986,0.985017,7479.20,10802.00,588.55
32,3159,0.168444,-0.136871,0.974747,14130.19,20457.99,2920.54
33,3259,0.157714,-0.117898,0.952431,3172.19,1736.99,-2682.46
34,3359,0.079654,-0.069105,0.940128,222.18,-19.02,-469.47
35,3469,0.039835,-0.034918,0.974824,234.20,64.00,-211.45
36,3569,0.013149,0.022522,0.939478,-7897.79,-18609.99,-3462.44
37,3669,-0.027094,-0.031358,0.937230,-7288.80,1721.00,-4030.45
38,3769,0.008645,0.018792,0.860868,567.19,-3731.01,-94.46
39,3879,-0.087026,0.022344,0.833130,-490.79,-11507.99,186.56
40,3979,-0.033306,0.015916,0.854524,-1629.79,-3905.99,1665.56
41,4079,-0.035160,-0.013261,0.874906,-5.81,-441.01,653.54
42,4189,-0.023663,-0.006329,0.898713,0.20,72.00,-111.45
43,4289,-0.018485,-0.004703,0.914390,-13.79,-28.99,-6.44
44,4389,-0.013609,-0.002662,0.927220,-14.82,-12.02,-35.47
45,4489,-0.011075,-0.000543,0.938749,1.20,-5.00,-35.45
46,4589,-0.009232,0.001516,0.948438,19.21,-3.99,26.56
47,4699,-0.008673,0.001709,0.956253,9.20,5.00,65.55
48,4799,-0.007411,0.001232,0.962713,14.20,-6.00,20.55
49,4899,-0.005898,0.001815,0.968258,4.19,0.99,-22.46
50,4999,-0.005748,0.003080,0.973210,1.20,-23.00,10.55
1,0,-0.002584,0.076098,0.978859,15.20,-9.00,-7.45
2,99,-0.004834,0.141074,0.961859,-5.79,2.01,-9.44
3,199,-0.006986,0.195590,0.947409,36.21,-14.99,29.56
4,299,-0.008081,0.242331,0.934615,26.22,-24.98,9.57
5,399,-0.009654,0.281713,0.924636,2.21,-4.99,-25.44
6,499,-0.010752,0.315206,0.915679,49.22,-12.98,33.57
7,599,-0.011612,0.343456,0.907863,-5.76,10.04,-31.41
8,699,-0.013039,0.366919,0.901770,16.23,-11.97,1.58
9,799,-0.013281,0.387631,0.895894,2.22,-22.98,19.57
10,899,-0.014385,0.405273,0.891321,-38.78,-6.98,-14.43
11,999,-0.021970,0.415472,0.748768,-16461.78,-265.98,242.57
12,1109,-0.039110,0.458162,0.685368,-7353.77,6431.03,361.58
13,1209,-0.054613,0.430050,0.670187,-14168.77,1098.03,-1858.42
14,1309,-0.040819,0.366128,0.703919,-869.78,3921.02,-181.43
15,1419,-0.056487,0.284896,0.764672,-8.77,-110.97,15.58
16,1519,-0.050120,0.234233,0.804154,-13.76,-109.96,100.59
17,1619,-0.048682,0.193165,0.834802,14.23,-23.97,1.58
18,1719,-0.048796,0.158367,0.861127,9.22,9.02,4.57
19,1829,-0.052043,0.127892,0.881618,19.22,67.02,-24.43
20,1929,-0.054583,0.102006,0.898944,5.24,49.04,-27.41
21,2029,-0.064139,0.048198,0.930333,-561.77,-1966.97,893.58
22,2139,-0.055270,0.032380,0.900892,3723.22,-10345.98,7398.57
23,2239,-0.020358,0.019905,0.890186,1847.21,-13269.99,13528.56
24,2339,0.083183,0.003808,0.873542,-539.79,-1232.99,19091.56
25,2439,0.212226,-0.072130,0.963691,-12633.78,23562.02,24566.57
26,2539,0.199654,-0.080445,0.904857,-275.77,-1755.97,7598.58
27,2649,0.180582,-0.120289,0.899507,8278.22,-314.98,2004.57
28,2749,0.199654,-0.107575,0.893074,7683.22,9468.02,1289.57
29,2849,0.181552,-0.112386,0.910366,10464.24,14559.04,1216.59
30,2949,0.334421,-0.101956,0.867422,-705.78,-5765.98,-4704.43
31,3059,0.225041,-0.053649,0.861791,781.23,-322.97,-1561.42
32,3159,0.152264,-0.025332,0.874858,-96.76,-104.96,171.59
33,3259,0.090367,0.002949,0.886038,5631.22,5624.02,-828.43
34,3359,0.086003,0.032938,0.968472,-1659.78,8036.02,-1378.43
35,3469,-0.019568,0.076905,0.956455,-2114.76,-2298.96,-3492.41
36,3569,-0.066292,0.090509,0.964386,-889.76,-7719.96,633.59
37,3669,-0.046150,0.071421,0.956974,-1586.77,-15057.97,2269.58
38,3769,-0.028388,0.041115,0.966860,-659.76,-917.96,1350.59
39,3879,-0.043448,0.024676,0.958014,-342.76,-195.96,27.59
40,3979,-0.038158,0.022970,0.967781,-55.75,3.05,-331.40
41,4079,-0.029012,0.021795,0.970753,-4.78,-30.98,-12.43
42,4189,-0.024679,0.021491,0.974928,10.23,4.03,21.58
43,4289,-0.022461,0.021344,0.979503,5.24,1.04,-10.41
44,4389,-0.019367,0.020833,0.982676,4.23,-3.97,-14.42
45,4489,-0.015822,0.020528,0.985374,8.24,-15.96,13.59
46,4589,-0.012662,0.019939,0.987924,5.24,-7.96,8.59
47,4699,-0.010251,0.018577,0.990091,3.24,0.04,7.59
48,4799,-0.008512,0.018153,0.991073,6.24,-3.96,-0.41
49,4899,-0.007364,0.018048,0.992072,1.25,2.05,12.60
50,4999,-0.007560,0.018344,0.993470,-2.75,-8.95,7.60
1,0,-0.002143,0.073242,0.980965,38.25,-28.95,45.60
2,99,-0.004165,0.135956,0.964108,-38.73,18.07,-40.38
3,199,-0.006744,0.188842,0.950512,-10.74,-16.94,14.61
4,299,-0.007124,0.234838,0.938589,-22.74,-8.94,9.61
5,399,-0.008930,0.272599,0.928381,-32.72,-1.92,-9.37
6,499,-0.010172,0.303084,0.920913,88.26,1.06,60.61
7,599,-0.010697,0.331688,0.913687,-71.74,23.06,-109.39
8,699,-0.012260,0.356111,0.907123,60.26,-32.94,53.61
9,799,-0.012636,0.376816,0.902386,-90.73,-5.93,-33.38
10,899,-0.012810,0.393939,0.897682,-4.73,-31.93,47.62
11,999,-0.013415,0.408090,0.894379,-42.74,-5.94,-10.39
12,1109,-0.012958,0.421218,0.891151,7.29,-16.91,28.64
13,1209,-0.013248,0.431644,0.889597,-19.73,-8.93,-12.38
14,1309,-0.012286,0.441056,0.887251,2.27,0.07,27.62
15,1419,-0.010113,0.494667,0.788998,-27144.73,-609.93,95.62
16,1519,-0.042324,0.488583,0.726943,-18124.73,2528.07,308.62
17,1619,-0.104749,0.338520,0.927349,-14523.72,-12430.92,-2218.37
18,1719,-0.105296,0.283293,0.938402,-4795.72,368.08,-630.37
19,1829,-0.096917,0.234592,0.931591,2.27,154.07,-195.38
20,1929,-0.087542,0.188655,0.942667,-17.72,-2.92,-42.37
21,2029,-0.078604,0.152246,0.951073,-1.72,12.08,-28.37
22,2139,-0.071299,0.120291,0.958750,0.27,-21.93,1.62
23,2239,-0.064467,0.093276,0.965111,1.28,-11.92,7.63
24,2339,-0.085320,0.086792,0.967221,-162.72,-538.92,181.63
25,2439,-0.153638,0.052881,1.019168,3094.27,-11336.93,3812.62
26,2539,-0.148701,0.043833,0.991197,-1127.72,-14812.92,9460.63
27,2649,-0.068973,0.018746,0.923880,-3270.71,-9698.91,16995.64
28,2749,-0.022134,-0.010725,0.859958,5701.27,-6584.93,12545.62
29,2849,0.068382,-0.047806,0.876505,1185.27,2980.07,7086.62
30,2949,0.093812,-0.074491,0.893408,-392.72,918.08,351.63
31,3059,0.170708,-0.033324,0.800622,1127.28,22840.08,5779.63
32,3159,0.166013,-0.051085,0.820558,6025.27,8537.07,504.62
33,3259,0.153086,-0.060561,0.849277,9588.27,13504.07,1009.62
34,3359,0.246743,-0.049425,0.811212,-1213.73,-4782.94,-5421.38
35,3469,0.151432,-0.000043,0.810718,510.28,-442.92,-1786.37
36,3569,0.098816,0.025452,0.845674,12.28,-95.92,-42.37
37,3669,0.026463,0.078800,0.852040,-7138.71,-17972.91,-3118.36
38,3769,-0.015720,0.055519,0.821655,-7936.72,2184.08,-4145.37
39,3879,-0.002760,0.091832,0.766255,-1833.73,-1427.93,-271.38
40,3979,-0.075624,0.077417,0.758973,-685.73,-10492.93,1492.62
41,4079,-0.052799,0.074374,0.758203,-960.73,-5311.93,4606.62
42,4189,-0.036986,0.020226,0.827513,381.30,-696.90,1200.65
43,4289,-0.029918,0.020470,0.854237,17.27,88.07,429.62
44,4389,-0.030996,0.018572,0.874498,20.28,-46.92,162.63
45,4489,-0.021677,0.015311,0.895309,16.28,-18.92,4.63
46,4589,-0.020786,0.014828,0.911388,-6.70,-4.90,-13.35
47,4699,-0.016368,0.014820,0.924615,-6.73,-1.93,-5.38
48,4799,-0.015651,0.015600,0.935913,5.29,-7.91,-8.36
49,4899,-0.012717,0.014487,0.945717,6.28,-18.92,8.63
50,4999,-0.011432,0.014860,0.954673,19.27,-4.93,1.62
1,0,-0.002361,0.075312,0.980563,30.29,-14.91,0.64
2,99,-0.004276,0.139730,0.963986,15.31,-3.89,-5.34
3,199,-0.006178,0.193955,0.949256,-2.68,-7.88,-1.33
4,299,-0.007318,0.239992,0.936570,-16.67,-26.87,15.68
5,399,-0.008544,0.278976,0.926428,-43.67,0.13,-3.32
6,499,-0.009659,0.312021,0.917605,0.33,-20.87,39.68
7,599,-0.010167,0.340403,0.909814,-32.67,-1.87,-22.32
8,699,-0.011204,0.364545,0.903703,-15.68,-1.88,-7.33
9,799,-0.011957,0.385523,0.897484,8.31,1.11,1.66
10,899,-0.012469,0.406670,0.753440,-7967.68,246.12,-475.33
11,999,-0.027809,0.370481,0.678079,8577.32,1227.12,241.67
12,1109,-0.009592,0.320330,0.736722,-12173.69,-70.89,-1030.34
13,1209,-0.009744,0.232017,0.837105,-4773.67,2567.13,-1826.32
14,1309,-0.020549,0.184984,0.878540,-737.69,-164.89,-150.34
15,1419,-0.022830,0.148083,0.892447,-4.68,-19.88,-0.33
16,1519,-0.026288,0.118474,0.905054,14.31,-18.89,8.66
17,1619,-0.028843,0.092391,0.917785,-8.68,-10.88,1.67
18,1719,-0.030796,0.070807,0.929577,-12.69,-5.89,-1.34
19,1829,-0.032913,0.053394,0.941358,8.32,-3.88,0.67
20,1929,-0.045278,0.032404,0.956260,-4636.68,-6925.88,1606.67
21,2029,-0.068752,0.028680,0.924506,-2510.69,-21459.89,3392.66
22,2139,0.082664,-0.080870,1.077031,3307.31,-6543.89,9661.66
23,2239,0.125362,-0.078498,1.000922,4929.32,-4050.88,8967.67
24,2339,0.172770,-0.083074,0.959942,2642.31,5784.11,9066.66
25,2439,0.204956,-0.102728,0.950817,-438.69,975.11,1610.66
26,2539,0.260256,-0.088141,0.889868,638.33,6770.13,1761.68
27,2649,0.234897,-0.077336,0.795178,6615.30,7912.10,1648.65
28,2749,0.223284,-0.090674,0.833454,7834.31,11413.11,672.66
29,2849,0.197905,-0.088754,0.842496,15849.32,23243.12,4179.67
30,2949,0.147786,-0.049365,0.812371,464.31,-924.89,-2179.34
31,3059,0.065616,-0.018668,0.833731,-21.68,-73.88,12.67
32,3159,0.041988,0.004916,0.919800,939.31,597.11,-387.34
33,3259,0.035764,0.028990,0.897415,-8088.69,-17072.89,-3865.34
34,3359,-0.041980,-0.040213,0.970124,-3913.68,1769.12,-3424.33
35,3469,-0.095795,-0.016309,0.936015,-3755.70,-1180.90,-640.35
36,3569,-0.141648,0.002874,0.894425,-956.68,-12266.88,1152.67
37,3669,-0.089161,0.001785,0.897398,-2144.68,-2892.88,4183.67
38,3769,-0.064085,-0.001026,0.884800,66.32,154.12,1356.67
39,3879,-0.046395,0.006233,0.888576,48.32,41.12,980.67
40,3979,-0.044304,0.009951,0.902790,48.33,17.13,492.68
41,4079,-0.041447,0.010400,0.918516,6.32,-4.88,-130.33
42,4189,-0.032591,0.010526,0.931022,-3.68,-20.88,-93.33
43,4289,-0.026657,0.011237,0.941853,7.33,-2.87,24.68
44,4389,-0.024597,0.012117,0.950969,7.33,-7.87,16.68
45,4489,-0.021876,0.012059,0.959028,-0.66,-17.86,-6.31
46,4589,-0.018025,0.011954,0.965586,1.33,-19.87,20.68
47,4699,-0.015465,0.012140,0.970519,2.32,4.12,-0.33
48,4799,-0.014059,0.011803,0.974968,7.32,-5.88,11.67
49,4899,-0.012223,0.011499,0.979281,4.32,-11.88,0.67
50,4999,-0.010185,0.011314,0.982618,10.35,-14.85,-7.30
1,0,-0.003092,0.075862,0.979538,32.34,5.14,-7.31
2,99,-0.006196,0.139851,0.960571,55.36,0.16,-4.29
3,199,-0.008504,0.195285,0.943936,59.36,-7.84,-35.29
4,299,-0.011071,0.241819,0.930620,58.37,0.17,-11.28
5,399,-0.011677,0.281317,0.918917,47.36,7.16,-33.29
6,499,-0.012980,0.314048,0.909885,25.37,-1.83,-20.28
7,609,-0.013740,0.342822,0.903124,23.35,-12.85,20.70
8,709,-0.014112,0.366346,0.897413,-2.64,-4.84,-22.29
9,809,-0.014427,0.386103,0.893292,35.37,-8.83,5.72
10,909,-0.007371,0.408317,0.743670,-7472.64,-80.84,-480.29
11,1009,-0.005236,0.375691,0.644433,7776.37,857.17,340.72
12,1119,0.003353,0.345597,0.657147,-12303.63,279.17,-1361.28
13,1219,-0.008811,0.268747,0.738339,-3816.63,4614.17,-749.28
14,1319,-0.015542,0.208387,0.788199,-540.63,231.17,-241.28
15,1429,-0.017748,0.167519,0.818569,25.39,-19.81,0.74
16,1529,-0.021033,0.134007,0.845024,10.38,-1.82,-7.27
17,1629,-0.023972,0.105174,0.867255,-4.63,-5.83,-7.28
18,1729,-0.026141,0.080355,0.886260,-4.62,-4.82,-9.27
19,1839,-0.028039,0.060192,0.904338,7.38,-14.82,-5.27
20,1939,-0.010207,0.006012,0.975716,-1423.63,-3588.83,1785.72
21,2039,0.032051,-0.001626,0.917149,-4507.62,-20083.82,5550.73
22,2149,0.253785,0.076806,0.780392,6918.38,-14565.82,8725.73
23,2249,0.315312,0.022093,0.811841,4230.37,-2274.83,7228.72
24,2349,0.361659,-0.016375,0.839232,2821.39,2149.19,5694.74
25,2449,0.356559,-0.045300,0.860354,-511.63,971.17,188.72
26,2549,0.397397,-0.048720,0.816930,858.39,6577.19,1887.74
27,2659,0.351816,-0.045035,0.736258,6417.37,8031.17,1951.72
28,2759,0.321167,-0.063034,0.781707,8017.37,11592.17,849.72
29,2859,0.280301,-0.064947,0.799830,15971.36,23540.16,4211.71
30,2959,0.184334,-0.010013,0.762281,-56.63,-1473.83,-2729.28
31,3069,0.090294,0.013391,0.791979,-38.61,-76.81,-48.26
32,3169,0.030099,0.059963,0.760771,5607.39,4732.19,-1682.26
33,3269,0.033351,0.101014,0.847715,-715.62,9083.18,-367.27
34,3369,-0.046318,0.160663,0.849547,-180.62,2013.18,-2240.27
35,3479,-0.088695,0.162512,0.868572,-602.61,-8099.81,718.74
36,3579,0.001095,0.093478,0.966408,-1442.63,-12434.83,601.72
37,3679,0.016792,0.051993,0.991470,-961.60,-675.80,1512.75
38,3779,0.013857,0.020228,0.993895,496.40,-534.80,532.75
39,3889,0.012074,0.033071,0.995369,-52.63,-14.83,175.72
40,3989,0.008985,0.031775,0.996897,-21.62,-9.82,19.73
41,4089,0.007056,0.029575,0.997134,10.39,-4.81,55.74
42,4199,0.005763,0.026936,0.997299,-11.61,-11.81,26.74
43,4299,0.005965,0.025590,0.997806,8.39,-9.81,-14.26
44,4399,0.004836,0.022010,0.998181,8.39,-10.81,-26.26
45,4499,0.003858,0.020341,0.998372,3.39,-14.81,-6.26
46,4599,0.003686,0.018574,0.998333,8.39,-9.81,-28.26
47,4709,0.002222,0.017237,0.998849,10.38,-8.82,26.73
48,4809,0.002167,0.015624,0.998445,4.38,-14.82,-0.27
49,4909,0.001992,0.014620,0.998487,26.40,-3.80,-0.25
50,5009,0.000910,0.012631,0.999126,-6.61,-13.81,3.74
1,0,-0.001754,0.073190,0.981443,-111.60,-8.80,32.75
2,99,-0.002402,0.138020,0.964058,-70.59,-0.79,8.76
3,199,-0.004069,0.191386,0.950490,23.40,9.20,56.75
4,299,-0.004590,0.236308,0.940732,10.41,-37.79,10.76
5,399,-0.006771,0.275206,0.931157,-23.58,22.22,-42.23
6,499,-0.005787,0.308488,0.922286,79.41,-10.79,19.76
7,599,-0.006764,0.336193,0.915331,85.43,8.23,0.78
8,699,-0.008162,0.360620,0.909658,16.40,4.20,-40.25
9,799,-0.007189,0.376165,0.879457,-72.59,70.21,75.76
10,899,0.021799,0.277483,1.039601,-23544.58,-311.78,718.77
11,999,0.012253,0.270086,1.120720,-17848.59,2487.21,-909.24
12,1109,0.000917,0.192332,1.086874,-6903.58,-3372.78,-2219.23
13,1209,-0.005698,0.129245,1.111738,-3209.59,-1277.79,-2313.24
14,1309,-0.014031,0.101877,1.093009,53.41,26.21,2.76
15,1419,-0.016206,0.078579,1.077310,11.43,-2.77,13.78
16,1519,-0.018531,0.057786,1.064808,2.41,-22.79,-0.24
17,1619,-0.019501,0.040039,1.054950,12.40,-4.80,-9.25
18,1719,-0.020691,0.025137,1.046516,4.42,-5.78,-13.23
19,1829,-0.052445,0.045265,1.022392,-991.58,-1930.78,-281.23
20,1929,-0.097107,0.032893,1.012598,-8640.60,-20985.79,1009.75
21,2029,-0.056078,-0.021110,0.988690,4167.41,-15123.79,5194.76
22,2139,0.045942,-0.047256,0.952476,4840.40,-5474.80,7647.75
23,2239,0.110595,-0.055618,0.905159,2881.42,6310.22,8503.77
24,2339,0.157511,-0.081934,0.911265,35.42,1617.22,2316.77
25,2439,0.192795,-0.116809,0.919422,1871.43,552.23,-142.22
26,2539,0.134840,-0.214238,1.090958,445.42,12564.22,2838.77
27,2649,0.137983,-0.199366,1.080675,6990.42,9649.22,786.77
28,2749,0.121136,-0.186670,1.063237,13055.42,18515.22,2744.77
29,2849,-0.185897,-0.009216,1.101753,2714.42,830.22,-2613.23
30,2949,-0.217865,0.021686,1.085109,560.42,-364.78,-2335.23
31,3059,-0.219000,0.045298,1.067061,5673.42,6196.22,-750.23
32,3159,-0.137732,0.043487,1.138384,-2343.58,4908.22,-848.23
33,3259,-0.173391,0.105229,1.111630,4076.41,2068.21,-619.24
34,3359,-0.235103,0.075147,1.132103,-336.57,-7745.77,-1162.22
35,3469,-0.204520,0.082006,1.094079,-1828.58,-15581.78,-1556.23
36,3569,-0.155892,0.057202,1.050241,-653.56,-1163.76,744.79
37,3669,-0.113936,0.029655,1.061684,-89.58,-747.78,332.77
38,3769,-0.100101,0.034219,1.061451,-67.59,-33.79,-1.24
39,3879,-0.080576,0.027478,1.051016,122.42,85.22,237.77
40,3979,-0.071598,0.027076,1.041708,56.42,-12.78,11.77
41,4079,-0.062391,0.025069,1.036176,2.43,-11.77,38.78
42,4189,-0.054089,0.022630,1.031382,1.43,-20.77,25.78
43,4289,-0.046392,0.020869,1.026923,1.42,-16.78,8.77
44,4389,-0.039263,0.019499,1.023700,7.42,-7.78,-3.23
45,4489,-0.033808,0.018134,1.020869,11.42,-7.78,34.77
46,4589,-0.029281,0.016278,1.018207,7.43,-10.77,36.78
47,4699,-0.025250,0.014004,1.015376,15.42,-18.78,37.77
48,4799,-0.022318,0.012016,1.013629,7.42,-6.78,15.77
49,4899,-0.019570,0.010455,1.012052,9.42,-3.78,1.77
50,4999,-0.017454,0.009329,1.010273,9.42,-10.78,-21.23
1,0,-0.003199,0.075370,0.980436,11.43,-7.77,11.78
2,99,-0.004710,0.139837,0.962580,50.44,-29.76,57.79
3,199,-0.007001,0.193810,0.948630,-83.56,18.24,-59.21
4,299,-0.008142,0.239760,0.937742,10.44,-55.76,70.79
5,399,-0.007593,0.279404,0.927902,-26.56,-16.76,-4.21
6,499,-0.009177,0.312241,0.920416,-47.55,-3.75,-37.20
7,599,-0.008930,0.340463,0.912387,44.45,-35.75,45.80
8,699,-0.009177,0.364873,0.906130,-62.55,16.25,-66.20
9,799,-0.011073,0.385402,0.900501,46.45,-30.75,42.80
10,899,-0.010798,0.403328,0.894910,1.44,-4.76,-9.21
11,999,-0.012029,0.417814,0.890597,-15.56,2.24,-25.21
12,1109,-0.012197,0.430768,0.886803,47.45,-34.75,44.80
13,1209,-0.012815,0.441980,0.883523,-37.56,13.24,-51.21
14,1309,-0.013853,0.450614,0.881303,25.45,-24.75,34.80
15,1419,-0.013601,0.458410,0.878592,-22.56,0.24,-12.21
16,1519,-0.014484,0.465055,0.876965,-6.55,-5.75,-0.20
17,1619,-0.017342,0.519079,0.783754,-26284.56,-725.76,388.79
18,1719,-0.019203,0.479124,0.727359,-15683.55,2832.25,-321.20
19,1829,0.044548,0.438460,0.737980,-11468.55,-9466.75,-3196.20
20,1929,0.005681,0.354238,0.815178,-3052.56,-100.76,-802.21
21,2029,0.014851,0.299000,0.828428,127.45,-151.75,207.80
22,2139,0.009443,0.248203,0.855089,37.44,45.24,-37.21
23,2239,0.002850,0.205519,0.876745,2.44,-13.76,28.79
24,2339,-0.004493,0.167462,0.895994,25.44,3.24,-5.21
25,2439,-0.010918,0.135370,0.911093,8.45,-7.75,7.80
26,2539,-0.020957,0.109264,0.928357,35.45,20.25,13.80
27,2649,-0.058219,0.076398,0.984982,1840.45,-6206.75,3573.80
28,2749,-0.058087,0.072779,0.944288,-693.57,-11138.77,8610.78
29,2849,-0.004397,0.044434,0.883185,-3178.55,-13963.75,16072.80
30,2949,0.008829,0.024040,0.778806,8033.45,-4048.75,12794.80
31,3059,0.078922,-0.000199,0.801632,3787.45,3226.25,9266.80
32,3159,0.097924,-0.026642,0.831324,-1299.56,2701.24,1000.79
33,3259,0.189716,0.022914,0.729927,711.43,21410.23,5784.78
34,3359,0.190397,-0.005807,0.759883,6521.44,9066.24,541.79
35,3469,0.178414,-0.029560,0.797522,11152.45,15545.25,1371.80
36,3569,0.072281,0.028107,0.703246,-1122.56,-122.76,-4030.21
37,3669,0.009205,0.056743,0.721475,411.45,-306.75,-1653.20
38,3769,-0.034907,0.067901,0.753212,58.45,72.25,-92.20
39,3879,-0.083425,0.111754,0.733643,4287.45,3113.25,-2290.20
40,3979,-0.066199,0.193231,0.714043,-2639.54,10974.26,-2143.19
41,4079,-0.164570,0.205229,0.727247,-4622.54,-2115.74,-3467.19
42,4189,-0.215446,0.191056,0.748230,-1830.54,-9173.74,-18.19
43,4289,-0.075970,0.113055,0.888381,178.47,-8654.73,2002.82
44,4389,-0.053875,0.070777,0.907569,-534.54,-744.74,1661.81
45,4489,-0.049450,0.054103,0.914505,-356.55,-308.75,360.80
46,4589,-0.043235,0.057582,0.930544,-22.54,27.26,-355.19
47,4699,-0.041248,0.052043,0.942749,15.46,49.26,-127.19
48,4799,-0.033993,0.047188,0.950797,-5.55,13.25,-94.20
49,4899,-0.029309,0.043355,0.958701,11.45,3.25,24.80
50,4999,-0.026811,0.039492,0.965236,8.47,-3.73,30.82
1,0,-0.002063,0.074784,0.984831,-77.53,30.27,-88.18
2,99,-0.002882,0.138205,0.969649,50.48,-56.72,115.83
3,199,-0.002809,0.192002,0.956579,-152.53,11.27,-76.18
4,299,-0.004963,0.237529,0.945800,-31.51,-44.71,63.84
5,399,-0.004340,0.276885,0.933707,-56.52,-6.72,5.83
6,499,-0.007216,0.309624,0.924216,-100.51,-5.71,-43.16
7,599,-0.008563,0.339228,0.914336,-0.54,-31.74,91.81
8,699,-0.009542,0.364300,0.906634,-118.52,12.28,-45.17
9,799,-0.011345,0.384623,0.900673,-16.51,-32.71,69.84
10,899,-0.012035,0.402922,0.894342,-30.54,-13.74,19.81
11,999,-0.013464,0.417653,0.889566,-54.51,-0.71,-36.16
12,1109,-0.008124,0.430046,0.739515,-19595.54,-574.74,-268.19
13,1209,-0.047566,0.485477,0.687064,-7974.52,8348.28,686.83
14,1309,-0.045900,0.457594,0.665443,-14096.52,562.28,-1378.17
15,1419,-0.031336,0.386707,0.708056,-4498.52,1108.28,-192.17
16,1519,-0.030877,0.317334,0.763193,-390.51,-197.71,-129.16
17,1619,-0.028436,0.266772,0.795539,13.48,-40.72,44.83
18,1719,-0.028888,0.217532,0.828215,4.49,-28.71,43.84
19,1829,-0.029474,0.176081,0.854414,6.47,-19.73,-3.18
20,1929,-0.029971,0.141049,0.876318,2.49,-14.71,2.84
21,2029,-0.030339,0.111399,0.895027,-3.51,-19.71,-11.16
22,2139,-0.054914,0.088596,0.921130,-1570.52,-5942.72,1774.83
23,2239,-0.034933,0.061816,0.894464,-1587.53,-9613.73,8271.82
24,2339,-0.032414,0.019882,0.850191,8533.49,-13066.71,8913.84
25,2439,0.094714,0.023422,0.806060,4973.48,-1451.72,10709.83
26,2539,0.161062,-0.013119,0.833459,2880.49,3168.29,7048.84
27,2649,0.172817,-0.040883,0.856785,-734.50,1945.30,913.85
28,2749,0.200570,-0.056920,0.829773,1300.50,14745.30,3638.85
29,2849,0.181880,-0.090950,0.867128,5670.48,7126.28,992.83
30,2949,0.168576,-0.096584,0.886264,9256.49,13046.29,1082.84
31,3059,0.405632,-0.129681,0.876327,-839.52,-6940.72,-3428.17
32,3159,0.277448,-0.085817,0.909647,526.49,1.29,-1858.16
33,3259,0.203592,-0.051022,0.919128,-126.52,-125.72,83.83
34,3359,0.015077,0.055036,0.905195,-1481.51,-625.71,-2696.16
35,3469,-0.063148,0.031240,0.925451,-9965.50,4508.29,-4381.16
36,3569,-0.095508,0.025423,0.893395,1392.49,-8150.71,273.84
37,3669,-0.131090,0.011946,0.890207,-1620.52,-14818.72,1460.83
38,3769,-0.128558,0.037240,0.870945,-905.51,-7061.71,2783.84
39,3879,-0.092898,0.020104,0.860358,-337.52,151.28,1284.83
40,3979,-0.071705,0.014072,0.890928,-350.51,-192.71,394.84
41,4079,-0.067680,0.015847,0.908179,61.50,-36.70,183.85
42,4189,-0.053768,0.012797,0.921706,5.49,-15.71,107.84
43,4289,-0.045640,0.013464,0.934157,2.49,-4.71,6.84
44,4389,-0.039428,0.012639,0.943990,7.49,-14.71,13.84
45,4489,-0.032665,0.012029,0.952567,-3.51,-7.71,23.84
46,4589,-0.028234,0.012427,0.960114,4.50,-12.70,-49.15
47,4699,-0.024174,0.012289,0.966694,6.50,-21.70,5.85
48,4799,-0.020467,0.012519,0.972378,5.51,-10.69,-4.14
49,4899,-0.017995,0.012843,0.976551,3.48,-9.72,10.83
50,4999,-0.014868,0.012678,0.980628,0.47,-7.73,14.82
1,0,-0.001549,0.075847,0.979247,140.50,-62.70,88.85
2,99,-0.003854,0.139804,0.962449,-27.49,48.31,-124.14
3,199,-0.006327,0.192666,0.949105,98.50,-34.70,50.85
4,299,-0.006653,0.238807,0.936865,46.49,-4.71,-10.16
5,399,-0.008412,0.277313,0.927541,-11.51,19.29,-72.16
6,499,-0.009120,0.310373,0.919653,90.51,-34.69,79.86
7,599,-0.008770,0.338602,0.913552,-22.50,12.30,-63.15
8,699,-0.010432,0.361333,0.908274,49.50,-18.70,2.85
9,799,-0.010215,0.382357,0.902836,86.50,-25.70,37.85
10,899,-0.011056,0.399496,0.898214,-36.49,27.31,-73.14
11,999,-0.012393,0.412177,0.894597,63.49,-22.71,52.84
12,1109,-0.079466,0.410578,1.050292,-23621.51,-1061.71,-747.16
13,1209,-0.092039,0.392301,1.099101,-18355.51,3795.29,-278.16
14,1309,-0.060062,0.305573,1.096606,-11309.50,-7949.70,-2494.15
15,1419,-0.059944,0.233869,1.108054,-2957.51,-541.71,-2184.16
16,1519,-0.065557,0.190260,1.091491,-60.49,48.31,-48.14
17,1619,-0.063700,0.152973,1.078639,8.48,3.28,-30.17
18,1719,-0.059284,0.121663,1.066469,-0.52,-5.72,-23.17
19,1829,-0.055566,0.095160,1.056326,1.48,-9.72,-13.17
20,1929,-0.052863,0.072303,1.047596,8.51,-1.69,-2.14
21,2029,-0.091033,0.084021,1.023951,-1238.51,-2054.71,-305.16
22,2139,-0.118331,0.060857,1.035988,-6282.50,-21906.70,2138.85
23,2239,0.004492,-0.038630,1.098057,2547.50,-9208.70,7170.85
24,2339,0.185063,-0.004046,1.005265,4289.50,-3357.70,7694.85
25,2439,0.220995,-0.014348,0.939026,2109.50,6322.30,7308.85
26,2539,0.228301,-0.033871,0.933004,282.50,1099.30,2078.85
27,2649,0.329122,-0.000257,0.862992,2601.51,1812.31,862.86
28,2749,0.315174,-0.092591,1.039853,5590.49,5758.29,1537.84
29,2849,0.287534,-0.097008,1.036981,7186.51,10160.31,791.86
30,2949,0.250637,-0.096112,1.022674,13865.50,19988.31,3591.86
31,3059,0.219000,-0.083375,0.980136,3784.51,2673.31,-1930.14
32,3159,0.124908,-0.043069,0.971060,770.49,-193.71,-1993.16
33,3259,0.090213,-0.020436,1.038840,4068.51,5256.31,-375.14
34,3359,0.174155,-0.020900,1.060069,-4521.51,-4475.71,-530.16
35,3469,0.095872,0.046766,1.049697,3944.50,2583.30,-884.15
36,3569,-0.026844,0.022837,1.082738,-1683.50,-6533.70,222.85
37,3669,-0.087886,0.018921,1.083357,-2072.51,-15619.71,-270.16
38,3769,-0.044392,0.004717,1.065573,-773.50,-1565.70,2339.85
39,3879,-0.053034,-0.003731,1.029948,-820.50,-380.70,1582.85
40,3979,-0.045365,-0.002966,1.033523,-107.51,-31.71,94.84
41,4079,-0.036373,-0.002187,1.025119,1.51,1.31,175.86
42,4189,-0.031075,-0.001653,1.025097,-34.51,-9.71,-8.16
43,4289,-0.027542,-0.001492,1.021234,5.51,-9.69,-51.14
44,4389,-0.022396,-0.000568,1.017840,4.50,-14.70,-11.15
45,4489,-0.021391,0.001005,1.015340,8.51,-12.69,-28.14
46,4589,-0.018139,0.002177,1.012794,0.49,-5.71,5.84
47,4699,-0.015594,0.003888,1.011362,5.50,-9.70,23.85
48,4799,-0.013742,0.004371,1.009723,3.50,-11.70,-9.15
49,4899,-0.011398,0.004984,1.008312,0.50,-11.70,-2.15
50,4999,-0.010725,0.004881,1.007095,7.50,-6.70,-3.15
1,0,-0.002666,0.075389,0.979137,46.49,-45.71,57.84
2,99,-0.004804,0.139415,0.961367,-22.49,14.31,-35.14
3,199,-0.006987,0.193581,0.946354,77.51,-33.69,39.86
4,299,-0.008111,0.240079,0.933721,27.51,0.31,-9.14
5,399,-0.010219,0.279164,0.922580,23.51,1.31,-29.14
6,499,-0.010967,0.312752,0.912946,31.52,-20.68,32.87
7,599,-0.012134,0.340972,0.905031,-43.48,3.32,-37.13
8,699,-0.013108,0.365124,0.898688,-6.50,-32.70,37.85
9,799,-0.013130,0.386569,0.892674,-22.49,2.31,-7.14
10,899,-0.014522,0.403844,0.888386,-21.49,-3.69,-12.14
11,999,-0.014973,0.418327,0.884339,7.51,-12.69,7.86
12,1109,-0.015411,0.430766,0.880916,-20.50,-3.70,-23.15
13,1209,-0.018292,0.432788,0.728996,-16204.50,-1145.69,-203.14
14,1309,-0.008180,0.485501,0.636577,-3084.49,10051.31,1301.86
15,1419,-0.023608,0.463456,0.628205,-14323.49,1180.31,-1117.14
16,1519,-0.030862,0.396817,0.687739,-3433.49,1724.31,209.86
17,1619,-0.034795,0.320692,0.741511,-665.49,-77.69,-38.14
18,1719,-0.038119,0.264005,0.780204,73.51,33.31,-20.14
19,1829,-0.037411,0.216334,0.811500,18.51,-11.69,15.86
20,1929,-0.037724,0.175704,0.839603,16.52,12.32,-22.13
21,2029,-0.036470,0.141095,0.863527,12.52,-4.68,-14.13
22,2139,-0.036559,0.111677,0.883643,7.49,-13.71,-21.16
23,2239,-0.061445,0.097988,0.893911,-3648.51,-7131.71,-227.16
24,2339,-0.020306,0.045044,0.906210,-4881.49,-8752.69,7154.86
25,2439,-0.018424,0.022472,0.885719,4259.51,-5919.69,8446.86
26,2539,0.084213,-0.006510,0.868834,3831.53,40.33,7865.88
27,2649,0.135622,-0.030413,0.859681,1241.53,2303.33,4079.88
28,2749,0.158316,-0.054832,0.869992,-471.49,940.31,459.86
29,2849,0.193921,-0.047664,0.843874,-410.49,16788.31,4659.86
30,2949,0.176504,-0.079768,0.873585,5706.51,7868.31,1191.86
31,3059,0.162542,-0.083856,0.891716,9531.49,13288.29,954.84
32,3159,0.120846,-0.038937,0.940837,-6007.49,-12510.69,-2476.14
33,3259,0.036315,-0.002916,0.961038,128.51,-431.69,-2128.14
34,3359,-0.002706,0.019151,0.959515,-116.49,-180.69,173.86
35,3469,-0.028990,0.045452,0.963310,5728.51,6049.31,-811.14
36,3569,0.025702,0.042393,1.051753,-1981.48,6158.32,-220.13
37,3669,-0.026064,0.099778,1.044294,3820.52,2467.32,-1160.13
38,3769,-0.129868,0.071486,1.071627,-1597.50,-6404.70,943.85
39,3879,-0.115745,0.066096,1.063824,-1816.48,-16373.68,307.87
40,3979,-0.062871,0.044779,1.042488,-713.50,-1129.70,1547.85
41,4079,-0.057901,0.025707,1.015160,-150.49,-468.69,683.86
42,4189,-0.042708,0.025408,1.015424,-123.49,-34.69,-1005.14
43,4289,-0.035195,0.022059,1.012462,-44.49,-27.69,-264.14
44,4389,-0.025185,0.020202,1.010256,1.49,-30.71,71.84
45,4489,-0.023506,0.018329,1.009443,17.50,4.30,56.85
46,4589,-0.022682,0.016903,1.007964,16.51,4.31,-63.14
47,4699,-0.019418,0.015618,1.007019,4.52,-9.68,-49.13
48,4799,-0.015619,0.015276,1.006160,0.51,0.31,-5.14
49,4899,-0.014496,0.014783,1.005247,11.49,-13.71,29.84
50,4999,-0.013706,0.014108,1.005149,4.50,-13.70,-1.15
1,0,-0.004406,0.072477,0.981096,24.49,-2.71,-36.16
2,99,-0.008498,0.134414,0.965999,32.52,-8.68,-11.13
3,199,-0.011078,0.187352,0.952250,31.53,-5.67,20.88
4,299,-0.014078,0.231856,0.940857,-13.47,-4.67,-29.12
5,399,-0.016591,0.269098,0.931484,-26.48,-14.68,12.87
6,499,-0.018012,0.301578,0.923755,-37.47,-25.67,14.88
7,599,-0.019752,0.328874,0.917827,-41.47,-32.67,0.88
8,699,-0.020956,0.351893,0.912513,2.52,-25.68,25.87
9,799,-0.021906,0.371130,0.907666,-11.47,7.33,-16.12
10,899,-0.022842,0.387609,0.903894,6.52,-7.68,2.87
11,999,-0.023381,0.402312,0.899718,12.53,-12.67,7.88
12,1109,-0.024865,0.415194,0.896223,-13.48,-6.68,-12.13
13,1209,-0.025668,0.425704,0.893326,15.53,-17.67,20.88
14,1309,-0.026075,0.434766,0.890350,-15.46,-5.66,-14.11
15,1419,-0.037171,0.476325,0.782096,-27133.47,33.32,711.87
16,1519,-0.014595,0.483653,0.732121,-17463.48,5828.32,-169.13
17,1619,-0.022651,0.392544,0.931753,-14105.46,-12583.67,-2581.11
18,1719,-0.048176,0.327570,0.937680,-2757.47,1253.33,-1446.12
19,1829,-0.033892,0.277414,0.933801,118.53,27.33,27.88
20,1929,-0.034586,0.229527,0.941636,-6.48,-44.68,29.87
21,2029,-0.036110,0.186900,0.950274,15.53,-5.67,-3.12
22,2139,-0.037643,0.151637,0.957561,9.53,-4.67,-7.12
23,2239,-0.038434,0.121481,0.963041,1.53,-2.67,9.88
24,2339,-0.050147,0.102019,0.970428,50.54,-53.66,20.89
25,2439,-0.085042,0.068850,1.015579,1478.53,-5451.67,3116.88
26,2539,-0.074823,0.066658,0.960538,110.53,-10922.67,7853.88
27,2649,-0.002141,0.039965,0.905018,-2825.48,-12138.68,14695.87
28,2749,0.036824,0.015152,0.786214,8541.54,439.34,12216.88
29,2849,0.116269,-0.010334,0.779933,1472.53,3835.33,8377.88
30,2949,0.149887,-0.042616,0.814199,-949.47,2244.33,1167.88
31,3059,0.235279,-0.090931,0.948813,1629.52,15089.32,3580.87
32,3159,0.222866,-0.103854,0.969521,7086.55,9800.35,660.90
33,3259,0.203636,-0.105666,0.970406,12200.54,17063.34,1343.89
34,3359,0.115732,-0.105338,1.066666,1704.54,3734.34,-2500.11
35,3469,0.031492,-0.055291,1.041827,363.53,-223.67,-1131.12
36,3569,0.015131,-0.019252,1.102325,1289.54,1113.34,-123.11
37,3669,0.004611,0.000670,1.042053,-8668.48,-16480.67,-2955.13
38,3769,-0.065688,-0.060528,1.087741,-4103.46,1608.34,-3481.11
39,3879,-0.132822,-0.042947,1.041009,-3320.46,-1469.66,-656.11
40,3979,-0.170258,-0.004969,0.984442,-1635.47,-13484.67,1781.88
41,4079,-0.110140,-0.001893,0.971425,-1999.46,-2726.66,3858.89
42,4189,-0.096706,-0.007628,0.951076,-576.47,-307.67,511.88
43,4289,-0.077943,0.002841,0.958701,-250.46,66.34,45.89
44,4389,-0.065181,0.001651,0.966317,119.53,45.33,225.88
45,4489,-0.058710,0.007891,0.969056,40.53,99.33,-239.12
46,4589,-0.045958,0.008507,0.974148,3.54,0.34,-23.11
47,4699,-0.039917,0.009726,0.978165,13.52,11.32,28.87
48,4799,-0.036613,0.010598,0.981910,4.53,-5.67,-24.12
49,4899,-0.032230,0.012034,0.985312,1.53,-8.67,-17.12
50,4999,-0.028266,0.013109,0.988351,4.53,-18.67,-9.12
1,0,-0.003764,0.075609,0.978496,20.53,-3.67,-26.12
2,99,-0.005937,0.140152,0.961226,106.54,-15.66,11.89
3,199,-0.007309,0.194849,0.946252,42.54,14.34,-48.11
4,299,-0.009207,0.240810,0.933086,69.54,-6.66,-15.11
5,399,-0.009392,0.280206,0.922096,59.55,10.35,-31.10
6,499,-0.010886,0.313364,0.912974,80.54,1.34,-13.11
7,599,-0.011442,0.341987,0.905055,20.53,5.33,-26.12
8,699,-0.012830,0.365529,0.898618,2.54,-7.66,-7.11
9,799,-0.012764,0.385834,0.893365,20.55,-13.65,17.90
10,899,-0.013789,0.403129,0.889798,2.55,0.35,-22.10
11,999,-0.013342,0.417335,0.886967,59.53,-13.67,10.88
12,1109,-0.013492,0.430491,0.883371,35.55,12.35,-30.10
13,1209,-0.013877,0.441179,0.880699,50.53,-12.67,6.88
14,1309,0.011211,0.469435,0.777628,-2746.45,294.35,60.90
15,1419,0.016936,0.392287,0.790560,8888.55,1081.35,662.90
16,1519,-0.009766,0.351064,0.844748,-13622.46,245.34,-888.11
17,1619,-0.023307,0.274240,0.854443,-7503.46,87.34,-3011.11
18,1719,-0.040786,0.227781,0.879547,-633.47,-55.67,-293.12
19,1829,-0.038853,0.184061,0.903009,-40.47,32.33,-4.12
20,1929,-0.037192,0.149041,0.918577,7.53,-8.67,5.88
21,2029,-0.038672,0.119824,0.931809,23.55,2.35,-15.10
22,2139,-0.040352,0.094458,0.940914,-0.46,-27.66,13.89
23,2239,-0.040534,0.072842,0.948378,-1.45,-18.65,1.90
24,2339,-0.065079,0.056795,0.952068,-4778.46,-6712.66,1679.89
25,2439,-0.093065,0.058553,0.927116,-2852.47,-21082.67,3360.88
26,2539,0.128251,-0.068237,1.097499,-2543.47,-13250.67,10787.88
27,2649,0.172065,-0.064038,1.012134,4418.54,-4151.66,8488.89
28,2749,0.211321,-0.071401,0.963285,2653.53,5942.33,8945.88
29,2849,0.238939,-0.089415,0.946282,-57.47,1620.33,1743.88
30,2949,0.284772,-0.051406,0.851775,782.54,12405.34,3956.89
31,3059,0.256072,-0.100654,0.903739,5773.54,8176.33,1315.89
32,3159,0.226147,-0.114574,0.927949,8465.52,12045.32,803.87
33,3259,0.205197,-0.113550,0.922508,16920.53,24695.33,3808.88
34,3359,0.102832,-0.056010,0.897101,315.54,-490.66,-2661.11
35,3469,0.047114,-0.025850,0.899382,-104.47,-192.67,323.88
36,3569,-0.012331,0.024377,0.863894,4436.53,3414.33,-1911.12
37,3669,0.010328,0.103727,0.855812,-1844.46,10238.34,-718.11
38,3769,-0.087947,0.143105,0.837919,-3546.46,-876.66,-2914.11
39,3879,-0.150332,0.146181,0.845232,-2034.45,-9365.65,945.90
40,3979,-0.025345,0.062607,0.956459,-770.47,-11079.67,2109.88
41,4079,-0.023952,0.037859,0.938960,-830.47,-570.67,1874.88
42,4189,0.011107,0.042055,0.939448,725.54,-412.66,312.89
43,4289,0.007014,0.052176,0.950190,-74.47,-54.67,143.88
44,4389,0.006886,0.045124,0.959266,171.54,83.34,260.89
45,4489,0.001320,0.042755,0.965205,22.54,-1.66,-184.11
46,4589,-0.001652,0.037812,0.970106,13.54,-20.66,54.89
47,4699,-0.001085,0.034068,0.974657,4.54,-8.66,-53.11
48,4799,-0.002451,0.030007,0.978744,3.55,-12.65,-4.10
49,4899,-0.002221,0.026683,0.982054,0.54,-8.66,22.89
50,4999,-0.002996,0.024444,0.984941,0.55,-7.65,-35.10
1,0,-0.001695,0.075426,0.979156,-52.47,-11.67,-10.12
2,99,-0.004673,0.139301,0.962372,-49.46,3.34,-35.11
3,199,-0.006746,0.193228,0.946897,45.55,-52.65,62.90
4,299,-0.008490,0.239414,0.933506,-44.44,9.36,-58.09
5,399,-0.010924,0.278050,0.923332,16.56,-8.64,15.91
6,499,-0.011181,0.311934,0.914098,34.56,-21.64,14.91
7,599,-0.013065,0.339747,0.906542,-21.43,7.37,-44.08
8,699,-0.013678,0.363974,0.900761,58.56,-30.64,46.91
9,799,-0.013576,0.384475,0.895553,-18.45,7.35,-43.10
10,899,-0.015303,0.401095,0.891585,20.56,-14.64,-4.09
11,999,-0.014774,0.416083,0.888102,35.56,-18.64,16.91
12,1109,-0.015222,0.428567,0.884702,-12.42,7.38,-40.07
13,1209,-0.015383,0.439013,0.881977,50.57,-28.63,29.92
14,1309,-0.017680,0.485685,0.788895,-26064.44,-1680.64,375.91
15,1419,-0.002128,0.477767,0.765183,-18108.43,4622.37,17.92
16,1519,0.029310,0.399681,0.884353,-11962.44,-12308.64,-2554.09
17,1619,0.012800,0.328894,0.929214,-3702.45,495.35,-1782.10
18,1719,0.014497,0.275593,0.935577,-34.44,-123.64,56.91
19,1829,0.008358,0.226496,0.942982,17.55,10.35,-32.10
20,1929,0.002700,0.184800,0.951656,16.55,-0.65,-11.10
21,2029,-0.003171,0.148223,0.959817,5.55,-7.65,-6.10
22,2139,-0.008857,0.117316,0.965947,11.54,-5.66,-9.11
23,2239,-0.052692,0.120653,0.953965,-1264.44,-2211.64,-242.09
24,2339,-0.105479,0.097708,0.994005,-1003.46,-12109.66,3668.89
25,2439,-0.085546,0.067164,0.983545,-1476.45,-15097.65,10539.90
26,2539,0.084033,-0.060147,1.145465,4857.57,-3316.63,13252.92
27,2649,0.227645,-0.047842,1.090167,1998.56,2219.36,12328.91
28,2749,0.274898,-0.078215,1.062060,1113.57,1453.37,4062.92
29,2849,0.340642,-0.034049,0.957987,4126.55,4614.35,1198.90
30,2949,0.304332,-0.041241,0.920978,7973.56,7129.36,1272.91
31,3059,0.279163,-0.059200,0.937989,8391.56,12091.36,826.91
32,3159,0.251104,-0.067069,0.935986,15803.57,22888.37,2731.92
33,3259,0.182631,-0.023806,0.896253,1670.56,370.36,-3139.09
34,3359,0.085226,0.008976,0.901262,138.57,-174.63,-703.08
35,3469,0.041708,0.028894,0.922658,76.55,-41.65,-134.10
36,3569,-0.018904,0.076989,0.899682,-7438.45,-18205.64,-2459.10
37,3669,-0.068171,0.048912,0.881087,-7562.44,1795.36,-3766.09
38,3769,-0.041145,0.069797,0.826224,1083.57,-6160.63,782.92
39,3879,-0.085098,0.055104,0.820076,-920.43,-9923.63,2067.92
40,3979,-0.064817,0.062335,0.811224,-681.44,-5436.64,3382.91
41,4079,-0.059443,0.021899,0.844093,93.55,-186.65,1802.90
42,4189,-0.046544,0.018510,0.878679,-235.44,-53.64,567.91
43,4289,-0.048837,0.017442,0.897072,35.55,-17.65,-27.10
44,4389,-0.039158,0.015655,0.912212,-5.43,-12.63,30.92
45,4489,-0.032543,0.016096,0.926270,8.56,-9.64,-49.09
46,4589,-0.029850,0.014822,0.937525,10.55,-13.65,-8.10
47,4699,-0.024044,0.015132,0.946963,4.57,-9.63,-13.08
48,4799,-0.022150,0.014827,0.955571,3.55,-13.65,8.90
49,4899,-0.018690,0.014714,0.962247,10.56,0.36,0.91
50,4999,-0.016043,0.014618,0.968617,8.55,-16.65,-12.10
1,0,-0.000650,0.075372,0.979614,104.56,-20.64,31.91
2,99,-0.003143,0.138486,0.964446,-5.42,31.38,-85.07
3,199,-0.005042,0.192298,0.950565,124.58,-37.62,54.93
4,299,-0.005503,0.239741,0.937814,35.58,11.38,-67.07
5,399,-0.008513,0.278383,0.927415,56.58,-1.62,-18.07
6,499,-0.008673,0.311760,0.918137,85.58,-19.62,27.93
7,599,-0.010164,0.339434,0.910653,-22.42,23.38,-84.07
8,699,-0.011340,0.363287,0.904145,76.57,-45.63,52.92
9,799,-0.011076,0.384294,0.898924,-10.43,1.37,-34.08
10,899,-0.012829,0.401088,0.894981,-9.43,-1.63,-28.08
11,999,-0.013111,0.415400,0.891960,35.58,-36.62,40.93
12,1109,-0.013735,0.426851,0.890380,-1.42,10.38,-42.07
13,1209,-0.020820,0.460681,0.797832,-30548.43,-760.63,297.92
14,1309,-0.011956,0.454005,0.800007,-18619.42,3924.38,379.93
15,1419,0.012497,0.367691,0.834138,-11360.43,-7646.63,-2774.08
16,1519,-0.000208,0.301246,0.893874,-4650.44,-1310.64,-2362.09
17,1619,-0.005771,0.250022,0.910171,42.57,183.37,-214.08
18,1719,-0.009162,0.205384,0.919116,-35.42,-44.62,4.93
19,1829,-0.012539,0.164841,0.930364,-6.42,-12.62,0.93
20,1929,-0.015006,0.130380,0.940199,-4.42,-26.62,1.93
21,2029,-0.017653,0.100685,0.949181,8.57,-18.63,-7.08
22,2139,-0.057164,0.109154,0.938816,-1136.42,-2001.62,-219.07
23,2239,-0.097835,0.083851,0.958516,-6486.42,-19884.62,2037.93
24,2339,-0.019283,-0.002640,1.003459,3937.58,-12567.62,7126.93
25,2439,0.004329,-0.047886,0.993724,4738.59,-6639.61,7995.94
26,2539,0.080099,-0.066130,0.964282,3227.59,5067.39,7959.94
27,2649,0.120792,-0.083323,0.948265,234.57,1266.37,1952.92
28,2749,0.174680,-0.105096,0.925330,3557.58,1023.38,-77.07
29,2849,0.151454,-0.200507,1.095982,5826.59,6074.39,1316.94
30,2949,0.148723,-0.192178,1.092198,7404.58,10623.38,856.93
31,3059,0.138198,-0.180264,1.068054,15041.59,21578.39,3041.94
32,3159,-0.022268,-0.046449,0.977108,3375.59,1782.39,-3174.06
33,3259,-0.084744,-0.005217,0.957702,366.58,-256.62,-1246.07
34,3359,-0.114667,0.014853,0.956680,-75.40,-117.60,113.95
35,3469,-0.150137,0.063571,0.927979,-7276.41,-17791.61,-2840.06
36,3569,-0.183032,0.036446,0.920301,-7442.40,1090.40,-3815.05
37,3669,-0.137788,0.050962,0.864757,1046.58,-6058.62,445.93
38,3769,-0.082100,0.062495,0.830710,-696.42,-12580.62,1417.93
39,3879,-0.059374,0.045913,0.871240,-918.40,-5891.60,1995.95
40,3979,-0.035168,0.011420,0.900362,458.60,-318.60,1762.95
41,4079,-0.016150,0.017770,0.884522,32.60,-496.60,577.95
42,4189,-0.015731,0.018864,0.899457,208.59,69.39,173.94
43,4289,-0.016254,0.021827,0.914093,27.60,50.40,-64.05
44,4389,-0.017432,0.021947,0.927064,-4.41,-10.61,-39.06
45,4489,-0.014660,0.021444,0.938584,-4.40,-24.60,-6.05
46,4589,-0.011828,0.019626,0.948322,11.60,-18.60,47.95
47,4699,-0.012387,0.018080,0.956104,16.61,-5.59,6.96
48,4799,-0.012936,0.017297,0.963579,-0.41,-16.61,-24.06
49,4899,-0.011480,0.016631,0.969439,-6.40,-20.60,-15.05
50,4999,-0.009125,0.016084,0.974530,10.59,-2.61,11.94
1,0,-0.001637,0.075245,0.979083,67.61,-29.59,44.96
2,99,-0.003725,0.138030,0.961725,-66.40,21.40,-52.05
3,199,-0.006690,0.192277,0.945616,5.59,-46.61,82.94
4,299,-0.007508,0.238423,0.932966,-62.41,-15.61,-0.06
5,399,-0.009814,0.277080,0.923533,-53.41,-16.61,-12.06
6,499,-0.010089,0.310342,0.915441,25.61,-38.59,63.96
7,609,-0.010927,0.338174,0.909332,-58.41,19.39,-61.06
8,709,-0.011640,0.361722,0.903847,32.61,-41.59,56.96
9,809,-0.011733,0.382507,0.898781,-23.40,-11.60,-3.05
10,909,-0.013149,0.399661,0.895574,-20.41,-9.61,-19.06
11,1009,-0.013492,0.413363,0.893471,61.60,-36.60,51.95
12,1119,0.023937,0.241941,1.068901,-24881.40,-64.60,1493.95
13,1219,0.005709,0.246050,1.134219,-18543.39,2911.41,-425.04
14,1319,0.039909,0.199023,1.089929,-11108.42,-7007.62,-2565.07
15,1429,0.025821,0.141911,1.105785,-3288.40,-1261.60,-2281.05
16,1529,0.008756,0.110817,1.089179,-15.40,39.40,7.95
17,1629,-0.000549,0.084111,1.076455,9.60,-13.60,-29.05
18,1729,-0.006352,0.062639,1.064578,19.59,10.39,-34.06
19,1839,-0.010131,0.043893,1.054849,-2.40,-13.60,-14.05
20,1939,-0.013710,0.029039,1.045425,12.59,6.39,-6.06
21,2039,-0.055827,0.056934,1.002570,-2927.42,-4562.62,-480.07
22,2149,-0.035889,0.025805,0.993938,-9069.40,-26310.60,2366.95
23,2249,0.001200,-0.028304,0.978783,8556.60,-15598.60,4017.95
24,2349,0.057611,-0.043552,0.941768,4139.61,-4034.59,7343.96
25,2449,0.106383,-0.057832,0.922646,1874.59,6410.39,7949.94
26,2549,0.142786,-0.076598,0.914340,-339.40,1525.40,1763.95
27,2659,0.184623,-0.111483,0.919438,2554.61,183.41,-300.04
28,2759,0.058448,-0.251785,1.090973,1030.60,10231.40,2140.95
29,2859,0.072469,-0.239060,1.084975,6514.60,9199.40,596.95
30,2959,0.076367,-0.226431,1.070208,11662.59,16429.39,2029.94
31,3069,-0.189063,-0.067600,1.106839,1491.60,-162.60,-3017.05
32,3169,-0.218609,-0.032350,1.090038,517.61,-166.59,-1814.04
33,3269,-0.184288,-0.005005,1.154273,2691.60,3187.40,-102.05
34,3369,-0.129681,-0.019775,1.132188,-6701.39,-12649.59,-1804.04
35,3479,-0.168684,-0.015411,1.190906,4677.60,2101.40,-1000.05
36,3579,-0.241826,-0.020289,1.160067,-2910.37,-3165.57,-478.02
37,3679,-0.244085,0.001365,1.125779,-2850.39,-12855.59,-123.04
38,3779,-0.191660,-0.009069,1.084897,-2095.40,-2288.60,2346.95
39,3889,-0.151291,-0.050640,1.114399,373.61,-640.59,623.96
40,3989,-0.122288,-0.042617,1.095658,-608.39,-81.59,184.96
41,4089,-0.103678,-0.039587,1.084361,202.61,35.41,170.96
42,4199,-0.090203,-0.028387,1.072781,71.60,43.40,-74.05
43,4299,-0.078951,-0.020863,1.062701,24.61,-8.59,69.96
44,4399,-0.068892,-0.016958,1.054077,6.61,-6.59,21.96
45,4499,-0.059372,-0.013126,1.045428,5.60,-18.60,-35.05
46,4599,-0.051536,-0.008679,1.038645,3.61,-5.59,-21.04
47,4709,-0.044069,-0.005851,1.033172,6.61,-25.59,19.96
48,4809,-0.036807,-0.004618,1.028153,16.62,-21.58,29.97
49,4909,-0.031495,-0.003388,1.024089,5.61,-2.59,-19.04
50,5009,-0.027437,-0.001665,1.020580,-2.39,-6.59,-18.04
1,0,-0.003193,0.074293,0.981427,6.63,4.43,-58.02
2,99,-0.003728,0.137698,0.966208,34.64,-32.56,41.99
3,199,-0.004604,0.191171,0.953711,-46.38,16.42,-49.03
4,299,-0.006063,0.236148,0.943638,27.62,-22.58,15.97
5,399,-0.005783,0.275458,0.933575,44.63,-10.57,3.98
6,499,-0.006955,0.309860,0.925607,15.63,-0.57,-47.02
7,599,-0.008373,0.338681,0.916911,101.62,-20.58,37.97
8,699,-0.008571,0.362226,0.908660,-16.37,26.43,-67.02
9,799,-0.010515,0.382148,0.902030,29.61,-12.59,10.96
10,899,0.002700,0.418491,0.767415,-4808.39,794.41,-185.04
11,999,-0.002199,0.303521,0.918826,6294.61,680.41,382.96
12,1109,0.004954,0.278507,0.939876,-12457.38,-1092.58,-1068.03
13,1209,0.046244,0.211194,0.933856,-5943.40,3242.40,-1107.05
14,1309,0.023406,0.155352,0.946793,-1067.38,-389.58,-564.03
15,1419,0.018973,0.123139,0.953963,-15.37,-33.57,30.98
16,1519,0.012585,0.095666,0.962400,18.62,-5.58,12.97
17,1619,0.007010,0.073468,0.968749,5.61,-13.59,-6.04
18,1719,0.002252,0.054892,0.973595,-3.38,-8.58,-10.03
19,1829,-0.001023,0.038132,0.977367,6.61,-11.59,2.96
20,1929,-0.011479,0.020151,0.992475,-5600.39,-7336.59,-297.04
21,2029,0.056245,-0.006229,0.979609,-8473.38,-22383.57,3982.98
22,2139,0.061187,-0.037716,0.988851,3017.63,-6025.57,8137.98
23,2239,0.159868,-0.069387,0.968251,3606.61,-2934.59,7193.96
24,2339,0.232139,-0.103155,0.994688,1746.62,2524.42,6041.97
25,2439,0.248508,-0.114207,0.984364,-641.37,1443.43,626.98
26,2539,0.286096,-0.115307,0.927872,873.62,7235.42,2387.97
27,2649,0.256706,-0.109375,0.843306,6444.63,8541.43,1766.98
28,2749,0.242766,-0.119402,0.870668,7769.63,11288.43,776.98
29,2849,0.213632,-0.115474,0.879241,14967.64,21276.44,2470.99
30,2949,0.067103,-0.018715,0.830003,1449.63,-847.57,-3474.02
31,3059,-0.013411,0.012810,0.842954,217.62,-199.58,-1254.03
32,3159,-0.044255,0.067311,0.820765,3643.63,3358.43,-2098.02
33,3259,-0.053060,0.145917,0.789124,-3371.38,11196.42,-1976.03
34,3359,-0.161105,0.157124,0.799766,-3650.37,-2677.57,-2572.02
35,3469,-0.208577,0.141930,0.807914,-1733.37,-10448.57,670.98
36,3569,-0.194144,0.105706,0.854775,2304.62,-6992.58,2327.97
37,3669,-0.158053,0.060102,0.898343,-951.37,-515.57,2295.98
38,3769,-0.147957,0.040474,0.897473,665.63,-880.57,992.98
39,3879,-0.130000,0.048435,0.898765,-275.38,-153.58,-1437.03
40,3979,-0.111056,0.038760,0.913652,-43.35,-13.55,-69.00
41,4079,-0.090138,0.033503,0.925390,25.63,20.43,-41.02
42,4189,-0.076332,0.029033,0.936685,2.63,-3.57,24.98
43,4289,-0.067288,0.025363,0.946507,3.63,-13.57,5.98
44,4389,-0.058191,0.023360,0.955184,-4.38,-5.58,-89.03
45,4489,-0.049194,0.022390,0.962908,2.63,-14.57,-12.02
46,4589,-0.041566,0.020320,0.969070,20.64,-18.56,41.99
47,4699,-0.036125,0.018176,0.974235,16.63,-10.57,33.98
48,4799,-0.031190,0.017233,0.976098,21.62,8.42,-24.03
49,4899,-0.031334,0.016010,0.980502,-10.38,-20.58,-9.03
50,4999,-0.027044,0.014989,0.983988,-25.36,-30.56,-38.01
1,0,-0.002277,0.075025,0.979981,85.63,-50.57,80.98
2,99,-0.004580,0.139584,0.962379,-82.37,13.43,-68.02
3,199,-0.008276,0.193305,0.948369,39.62,-52.58,70.97
4,299,-0.009367,0.240507,0.935252,-30.35,-21.55,18.00
5,399,-0.011924,0.279090,0.924945,-64.37,-13.57,-23.02
6,499,-0.013144,0.312179,0.916038,6.66,-45.54,71.01
7,599,-0.013321,0.339792,0.908156,-57.35,7.45,-35.00
8,699,-0.014369,0.362604,0.902207,25.65,-9.55,41.00
9,799,-0.013905,0.383147,0.895941,-0.37,-12.57,-10.02
10,899,-0.015086,0.400590,0.891512,-19.37,-14.57,-27.02
11,999,-0.015539,0.415363,0.887474,38.64,-29.56,51.99
12,1109,-0.016291,0.427626,0.884187,-42.35,6.45,-33.00
13,1209,-0.016838,0.438306,0.881815,22.65,-26.55,30.00
14,1309,-0.011628,0.463388,0.722785,-9413.36,558.44,-389.01
15,1419,0.055021,0.516769,0.584442,1308.64,6340.44,1332.99
16,1519,0.055605,0.472494,0.589422,-12221.36,801.44,-987.01
17,1619,0.037535,0.375590,0.681417,-4356.36,6318.44,-101.01
18,1719,0.025764,0.297194,0.728649,-775.36,-26.56,-57.01
19,1829,0.021252,0.243284,0.774492,-138.35,-52.55,-46.00
20,1929,0.014798,0.198925,0.808935,-7.37,-36.57,17.98
21,2029,0.009642,0.160945,0.837589,-2.36,-22.56,29.99
22,2139,0.004179,0.128021,0.862128,-4.36,-26.56,-0.01
23,2239,0.000048,0.100183,0.882620,-1.35,-21.55,13.00
24,2339,-0.018990,0.054895,0.958816,-4276.36,-6108.56,-447.01
25,2439,0.054970,0.027882,0.951310,-6077.35,-14041.55,6234.00
26,2539,0.142263,-0.030382,0.961922,10950.65,-15439.55,4753.00
27,2649,0.211169,-0.041950,0.936024,4063.64,-1203.56,7456.99
28,2749,0.235408,-0.059508,0.935288,2392.65,2996.45,5329.00
29,2849,0.240849,-0.075166,0.936475,-850.36,2138.44,1202.99
30,2949,0.309562,-0.008458,0.836428,4607.65,4128.45,970.00
31,3059,0.284068,-0.041075,0.818862,5630.64,9266.44,1955.99
32,3159,0.260347,-0.055195,0.843116,8094.64,11714.44,780.99
33,3259,0.236505,-0.065237,0.853716,15844.66,22952.46,3324.01
34,3359,0.176322,-0.025818,0.826782,1501.64,294.44,-2842.01
35,3469,0.090010,0.004320,0.839045,88.65,-36.55,-393.00
36,3569,0.062018,0.026915,0.925713,1090.65,648.45,-312.00
37,3669,0.034600,0.041800,0.886478,-8535.35,-16730.55,-3170.00
38,3769,-0.012674,-0.001377,0.912766,-5192.36,2007.44,-3130.01
39,3879,-0.069410,0.016909,0.871262,-2391.35,-1556.55,-566.00
40,3979,-0.074056,0.036884,0.836020,-922.36,-12764.56,692.99
41,4079,-0.066214,0.035643,0.856144,-1346.36,-4649.56,2208.99
42,4189,-0.043361,0.001209,0.891028,378.65,-272.55,1044.00
43,4289,-0.033439,0.009091,0.889772,-495.35,-29.55,751.00
44,4389,-0.035827,0.014638,0.905221,1.65,-10.55,629.00
45,4489,-0.032327,0.015251,0.920110,7.66,12.46,-146.99
46,4589,-0.027009,0.015003,0.931575,-7.37,-33.57,82.98
47,4699,-0.023111,0.014408,0.942272,16.64,3.44,50.99
48,4799,-0.022635,0.014085,0.950908,10.65,-2.55,-18.00
49,4899,-0.020070,0.013353,0.958376,3.64,-15.56,-10.01
50,4999,-0.016517,0.012016,0.965383,8.65,-26.55,32.00
1,0,-0.003064,0.074440,0.980476,-3.34,-13.54,3.01
2,99,-0.004570,0.138904,0.963220,-3.36,-28.56,34.99
3,199,-0.006638,0.193588,0.949085,-45.36,7.44,-30.01
4,299,-0.008341,0.239502,0.937234,35.63,-28.57,28.98
5,399,-0.008818,0.278950,0.926776,13.64,1.44,-15.01
6,499,-0.011183,0.311638,0.917759,-0.37,-5.57,-30.02
7,599,-0.012076,0.340192,0.909508,44.64,-29.56,27.99
8,699,-0.012615,0.364574,0.902331,-22.36,10.44,-34.01
9,799,-0.013696,0.384803,0.897182,12.63,-30.57,28.98
10,899,-0.013425,0.402236,0.892933,-6.37,-13.57,9.98
11,999,-0.027092,0.413447,0.847940,-450.37,-8.57,97.98
12,1109,0.044805,0.172469,1.030201,-5859.38,-736.58,1293.97
13,1209,0.012974,0.180792,1.095611,-15157.37,-226.57,-807.02
14,1309,0.005839,0.117883,1.071211,-6688.37,-2696.57,-2551.02
15,1419,-0.012769,0.066772,1.085042,-2274.36,-621.56,-2040.01
16,1519,-0.021370,0.049293,1.070302,-119.36,-74.56,24.99
17,1619,-0.023097,0.032916,1.057792,28.64,-28.56,41.99
18,1719,-0.025316,0.017750,1.048129,9.63,-25.57,19.98
19,1829,-0.026451,0.005811,1.040538,-5.36,-17.56,14.99
20,1929,-0.027470,-0.004667,1.034488,4.64,-13.56,6.99
21,2029,-0.064373,0.025209,0.980255,-3951.37,-5946.57,-311.02
22,2139,-0.032476,-0.000776,0.978505,-4082.37,-21314.57,4650.98
23,2239,-0.008349,-0.061791,1.010270,5230.64,-9623.56,9351.99
24,2339,-0.012395,-0.082289,0.982320,5017.63,-3300.57,9502.97
25,2439,0.065995,-0.089494,0.953784,2144.63,5737.43,8688.98
26,2539,0.117484,-0.105708,0.939745,164.64,1236.44,2013.99
27,2649,0.162129,-0.104383,0.889524,238.62,8640.42,2682.97
28,2749,0.151206,-0.092784,0.814647,8436.63,7351.43,1324.98
29,2849,0.148769,-0.099752,0.846528,8185.63,11842.43,908.98
30,2949,0.147578,-0.098002,0.851434,15898.65,22982.45,2887.00
31,3059,0.031282,-0.030432,0.829512,720.64,-534.56,-3683.01
32,3159,-0.031407,-0.000994,0.844496,-43.37,-115.57,-153.02
33,3259,-0.060907,0.025254,0.853186,6090.63,5682.43,-986.02
34,3359,-0.014663,0.051411,0.931800,-1144.38,8724.42,-313.03
35,3469,-0.112647,0.104442,0.918697,-488.36,1003.44,-2580.01
36,3569,-0.205639,0.090522,0.948135,-1167.37,-7505.57,2427.98
37,3669,-0.114137,0.027604,1.070753,-2346.37,-14121.57,2441.98
38,3769,-0.060952,0.016256,1.058907,-236.39,-1532.59,3111.96
39,3879,-0.045737,-0.016736,1.079124,311.64,-574.56,619.99
40,3979,-0.034782,-0.001639,1.064924,-324.38,-26.58,207.97
41,4079,-0.029004,-0.007154,1.054942,298.64,202.44,53.99
42,4189,-0.027206,-0.004573,1.046768,38.62,-17.58,49.97
43,4289,-0.023278,-0.002378,1.039345,16.64,-2.56,9.99
44,4389,-0.020214,-0.000385,1.033584,3.64,-6.56,24.99
45,4489,-0.018416,0.001346,1.028962,5.63,-8.57,-2.02
46,4589,-0.016320,0.003349,1.025381,15.63,-13.57,-33.02
47,4699,-0.013842,0.004336,1.021550,11.63,-5.57,-0.02
48,4799,-0.011919,0.004810,1.018440,10.64,-9.56,6.99
49,4899,-0.010688,0.005341,1.016016,-0.37,0.43,-8.02
50,4999,-0.009751,0.006927,1.013699,-3.37,-4.57,-13.02
1,0,-0.005610,0.079090,0.974616,36.63,-85.57,41.98
2,99,-0.010086,0.141721,0.956409,-18.36,-8.56,-16.01
3,199,-0.008213,0.198802,0.940200,67.63,-12.57,-40.02
4,299,-0.010852,0.243806,0.928144,119.62,0.42,-26.03
5,399,-0.011942,0.282480,0.917218,63.63,5.43,-81.02
6,499,-0.012666,0.315023,0.908389,125.62,-28.58,-0.03
7,599,-0.013685,0.342831,0.902515,34.62,16.42,-48.03
8,699,-0.013269,0.366834,0.896386,67.62,-5.58,-33.03
9,799,-0.014106,0.387457,0.892238,72.63,-13.57,-14.02
10,899,-0.014872,0.404126,0.887614,4.63,-4.57,-43.02
11,999,-0.014443,0.419356,0.884709,37.62,3.42,14.97
12,1109,-0.014645,0.431954,0.881379,47.63,-11.57,4.98
13,1209,-0.025969,0.438579,0.725033,-14254.39,-0.59,-496.04
14,1309,0.064418,0.502254,0.586683,701.62,5399.42,619.97
15,1419,0.048651,0.477039,0.581841,-13698.37,751.43,-1735.02
16,1519,-0.002288,0.371798,0.726389,-4448.38,2726.42,179.97
17,1619,-0.007867,0.292854,0.776873,-910.38,-77.58,-20.03
18,1719,-0.008763,0.237672,0.811508,-32.39,17.41,-34.04
19,1829,-0.012876,0.191573,0.842230,11.62,-27.58,22.97
20,1929,-0.015474,0.153633,0.865743,-7.37,-19.57,-10.02
21,2029,-0.017299,0.121476,0.886022,5.61,-11.59,13.96
22,2139,-0.018428,0.093960,0.902966,7.63,-18.57,-6.02
23,2239,-0.027957,0.058267,0.962780,-3813.36,-6345.56,-432.01
24,2339,0.043447,0.028147,0.963211,-5725.38,-13989.58,6571.97
25,2439,-0.004112,-0.001795,0.937468,2384.61,-8520.59,7935.96
26,2539,0.094074,-0.029131,0.917874,3548.61,-2232.59,6657.96
27,2649,0.122455,-0.048614,0.918139,2120.62,3218.42,5089.97
28,2749,0.157821,-0.063672,0.921788,-819.37,1474.43,1090.98
29,2849,0.188303,-0.079877,0.903320,-67.37,16741.43,4697.98
30,2949,0.175450,-0.102935,0.914997,6285.63,7612.43,1241.98
31,3059,0.162162,-0.104810,0.922706,10191.62,14353.42,1095.97
32,3159,0.248994,-0.115797,0.868871,36.63,-1503.57,-7020.02
33,3259,0.155260,-0.069801,0.877749,1295.63,-473.57,-3211.02
34,3359,0.083221,-0.041965,0.885095,-119.38,-174.58,279.97
35,3469,0.028103,-0.002925,0.871508,5963.62,5330.42,-926.03
36,3569,0.046293,0.026323,0.958452,-817.38,9610.42,-507.03
37,3669,-0.039485,0.082733,0.966143,2356.63,3269.43,-1740.02
38,3769,-0.107709,0.068902,0.989490,-1440.37,-7275.57,157.98
39,3879,-0.004823,-0.023897,1.150518,-1183.38,-13166.58,450.97
40,3979,0.030555,-0.032080,1.112407,-972.39,-1047.59,2384.96
41,4079,0.013348,-0.034787,1.077815,-633.39,-171.59,692.96
42,4189,0.014231,-0.019656,1.061010,-167.38,-165.58,-1218.03
43,4289,0.010185,-0.019447,1.051816,-29.37,-59.57,-191.02
44,4389,0.013429,-0.016798,1.043983,-7.37,-29.57,38.98
45,4489,0.011444,-0.015004,1.038149,24.62,-2.58,64.97
46,4589,0.006699,-0.012399,1.033135,4.62,-4.58,-18.03
47,4699,0.005210,-0.010331,1.029001,2.61,-12.59,-42.04
48,4799,0.005044,-0.007859,1.025268,6.63,-4.57,-29.02
49,4899,0.004042,-0.005300,1.021508,4.60,-10.60,5.95
50,4999,0.001103,-0.003382,1.018679,7.62,-11.58,2.97
1,0,-0.002681,0.073231,0.981922,-103.39,-37.59,4.96
2,99,-0.004630,0.136905,0.965859,-37.38,-52.58,40.97
3,199,-0.006359,0.191559,0.951529,-66.37,1.43,-18.02
4,299,-0.008379,0.237686,0.939549,-18.37,-5.57,22.98
5,399,-0.009784,0.276912,0.928415,-26.37,-17.57,15.98
6,499,-0.011491,0.310180,0.918804,-18.37,-0.57,-2.02
7,599,-0.012430,0.338203,0.910470,12.63,-23.57,33.98
8,699,-0.013209,0.362058,0.903770,-14.37,-9.57,-12.02
9,799,-0.014183,0.382390,0.898112,-4.37,-21.57,11.98
10,899,-0.014644,0.400057,0.893505,6.64,-11.56,-3.01
11,999,-0.015549,0.414249,0.890302,-4.38,-2.58,-10.03
12,1109,-0.013132,0.426167,0.741260,-19013.37,-404.57,-16.02
13,1209,-0.039295,0.479308,0.686297,-7864.39,7306.41,784.96
14,1309,-0.044632,0.462479,0.664847,-14370.36,997.44,-1648.01
15,1419,-0.030290,0.398094,0.692812,-4282.37,1519.43,-189.02
16,1519,-0.021652,0.316451,0.754082,-313.37,-51.57,-100.02
17,1619,-0.023594,0.258370,0.789279,-24.38,-30.58,11.97
18,1719,-0.025829,0.209020,0.820406,34.63,1.43,-9.02
19,1829,-0.026155,0.168317,0.846863,7.62,-4.58,5.97
20,1929,-0.027110,0.133408,0.869553,0.64,-9.56,-15.01
21,2029,-0.026950,0.103882,0.888382,-2.38,-4.58,-24.03
22,2139,-0.063619,0.098176,0.886515,-3738.37,-9477.58,532.98
23,2239,-0.029236,0.032279,0.917778,-3179.37,-9720.57,8304.98
24,2339,0.084493,-0.033201,0.932101,5162.62,-12767.58,7569.97
25,2439,0.151023,-0.051633,0.906190,3165.62,-373.58,7419.97
26,2539,0.200396,-0.068838,0.888927,1402.63,2430.43,4568.98
27,2649,0.212132,-0.092106,0.899997,-698.38,1153.42,615.97
28,2749,0.277662,-0.056585,0.836366,-367.38,15096.42,4621.97
29,2849,0.246333,-0.097694,0.875719,6175.62,8907.42,1685.97
30,2949,0.226991,-0.108722,0.897083,9432.63,13338.43,990.98
31,3059,0.405740,-0.122619,0.856833,-564.36,-5721.56,-4786.01
32,3159,0.284996,-0.077285,0.882111,917.62,-218.58,-2431.03
33,3259,0.192472,-0.047521,0.886824,-71.38,-189.58,233.97
34,3359,0.140358,-0.017168,0.924303,5612.63,5705.43,-880.02
35,3469,0.138541,0.027839,0.981465,-883.37,10441.43,-723.02
36,3569,0.035282,0.080946,0.984880,1864.62,2747.42,-2280.03
37,3669,-0.060417,0.063555,1.012887,-1561.38,-7187.58,404.97
38,3769,-0.081720,0.075214,0.995787,-1894.38,-15916.58,673.97
39,3879,-0.037554,0.056450,0.972738,-994.37,-904.57,2497.98
40,3979,-0.019843,0.026017,1.003664,-15.38,-127.58,290.97
41,4079,0.006179,0.022432,1.013015,-663.38,-770.58,-386.03
42,4189,0.007827,0.018617,1.006955,-4.37,-120.57,-121.02
43,4289,0.009905,0.015208,1.007023,6.62,-44.58,119.97
44,4389,0.007314,0.012641,1.006312,18.63,0.43,-1.02
45,4489,0.004835,0.012180,1.005304,9.61,-5.59,-29.04
46,4589,0.004158,0.011293,1.004851,0.63,-26.57,38.98
47,4699,0.004058,0.010320,1.004868,20.62,-7.58,15.97
48,4799,0.001868,0.009658,1.004938,11.64,-1.56,-14.01
49,4899,0.000171,0.009132,1.004393,0.63,-18.57,-23.02
50,4999,0.000468,0.009161,1.004003,3.63,-16.57,-4.02
1,0,-0.001307,0.075813,0.979194,93.64,-37.56,62.99
2,99,-0.003461,0.139723,0.961984,-36.36,28.44,-114.01
3,199,-0.006079,0.193479,0.947924,107.66,-45.54,80.01
4,299,-0.006272,0.240453,0.935094,-30.35,4.45,-33.00
5,399,-0.008963,0.279283,0.925507,-4.35,-13.55,3.00
6,499,-0.009273,0.312617,0.916662,45.64,-34.56,59.99
7,599,-0.010379,0.340640,0.909528,-54.36,20.44,-62.01
8,699,-0.011319,0.364552,0.903391,51.65,-42.55,64.00
9,799,-0.011294,0.385627,0.897241,-23.36,-11.56,-29.01
10,899,-0.012994,0.402552,0.893295,-16.34,-4.54,-4.99
11,999,-0.015208,0.411299,0.870203,-41.36,51.44,148.99
12,1109,0.022425,0.249947,1.049124,-9439.34,-599.54,961.01
13,1209,-0.020294,0.240917,1.141305,-15049.35,1474.45,-1197.00
14,1309,0.047709,0.134584,1.192265,-9938.35,-6055.55,-3190.00
15,1419,0.022657,0.083734,1.192937,-1842.35,-72.55,-1800.00
16,1519,0.016048,0.060762,1.170656,-197.35,-86.55,-9.00
17,1619,0.007738,0.043251,1.146169,15.64,-34.56,70.99
18,1719,0.000656,0.027908,1.124751,-7.35,-31.55,21.00
19,1829,-0.004264,0.014995,1.106747,5.66,-14.54,21.01
20,1929,-0.008831,0.004165,1.090949,-9.36,-22.56,11.99
21,2029,-0.060101,0.022206,1.053992,-1508.35,-3163.55,1.00
22,2139,-0.098718,0.010991,1.069490,-811.34,-16171.54,4135.01
23,2239,-0.066705,-0.002735,1.054996,-2084.35,-15359.55,10516.00
24,2339,-0.060715,-0.030498,0.979267,8478.66,-10358.54,9700.00
25,2439,0.077237,-0.102747,1.039006,3816.65,3381.45,11268.00
26,2539,0.139583,-0.122520,1.028389,1028.65,1638.45,3623.00
27,2649,0.170623,-0.144839,1.029563,424.66,403.46,25.01
28,2749,0.041093,-0.258842,1.162691,-170.34,18726.46,4745.01
29,2849,0.058928,-0.245606,1.146961,6133.65,8793.45,564.00
30,2949,0.069144,-0.228918,1.119162,11431.66,15862.46,1174.01
31,3059,-0.096159,-0.139348,1.187946,2630.67,3606.47,-2665.98
32,3159,-0.144987,-0.091467,1.156819,316.65,-235.55,-1773.00
33,3259,-0.128811,-0.046868,1.208968,2587.66,2973.46,-226.99
34,3359,-0.099004,-0.055760,1.170367,-6738.34,-13990.54,-1690.99
35,3469,-0.153410,-0.081960,1.257874,3808.64,2159.44,-1966.01
36,3569,-0.229666,-0.070702,1.207340,-2864.34,-3343.54,-94.99
37,3669,-0.226003,-0.040753,1.146699,-2659.35,-12093.55,1863.00
38,3769,-0.178925,-0.036720,1.095209,-1984.35,-3110.55,3757.00
39,3879,-0.146984,-0.056400,1.077626,85.65,-92.55,919.00
40,3979,-0.129393,-0.051522,1.067899,-141.35,-226.55,83.00
41,4079,-0.095689,-0.018298,1.058661,-61.34,15.46,439.01
42,4189,-0.087367,-0.017707,1.050186,52.64,71.44,-23.01
43,4289,-0.072218,-0.014238,1.043403,-5.36,1.44,-91.01
44,4389,-0.061977,-0.009275,1.037455,3.65,-17.55,-28.00
45,4489,-0.054024,-0.007052,1.032545,5.66,-10.54,-26.99
46,4589,-0.046311,-0.004248,1.027713,6.65,-15.55,17.00
47,4699,-0.040396,-0.002102,1.023807,0.64,-11.56,3.99
48,4799,-0.034471,0.000125,1.020816,1.67,-10.53,17.02
49,4899,-0.029362,0.001689,1.017853,8.65,-16.55,11.00
50,4999,-0.025897,0.003585,1.015902,-0.34,-11.54,-5.99
1,0,-0.001288,0.075502,0.979835,15.65,-21.55,30.00
2,99,-0.004249,0.138672,0.963665,-94.30,1.50,-48.95
3,199,-0.005979,0.192751,0.950031,14.71,-44.49,83.06
4,299,-0.006039,0.239067,0.938295,-56.30,-14.50,-8.95
5,399,-0.007958,0.277922,0.929126,-15.29,-16.49,-6.94
6,499,-0.008544,0.311846,0.920105,39.72,-29.48,38.07
7,599,-0.009281,0.340188,0.912053,-31.28,17.52,-52.93
8,699,-0.010970,0.364607,0.905721,23.70,-32.50,29.05
9,799,-0.011453,0.385621,0.899314,-9.30,-24.50,8.05
10,899,-0.012468,0.402511,0.894472,-59.29,-18.49,-12.94
11,999,-0.013001,0.417729,0.890045,-7.28,-31.48,56.07
12,1109,-0.013454,0.430609,0.887271,-49.28,-5.48,-32.93
13,1209,-0.026821,0.437071,0.845399,-340.29,20.51,182.06
14,1309,0.011127,0.320488,1.011626,-23512.27,-471.47,1271.08
15,1419,-0.026618,0.301922,1.090829,-15421.28,-94.48,-1218.93
16,1519,-0.065366,0.224672,1.066433,-7019.28,-3102.48,-2688.93
17,1619,-0.067724,0.162671,1.086529,-3613.30,-1187.50,-2828.95
18,1719,-0.067696,0.130918,1.077793,95.72,81.52,35.07
19,1829,-0.059340,0.102958,1.064692,-10.28,-71.48,74.07
20,1929,-0.054984,0.076427,1.055532,2.72,-28.48,38.07
21,2029,-0.050788,0.055211,1.046520,-12.30,-26.50,2.05
22,2139,-0.047532,0.036959,1.039574,-8.27,-29.47,-0.92
23,2239,-0.056355,0.050247,0.989871,-5150.29,-7052.49,-615.94
24,2339,-0.047704,0.020618,0.989335,-4730.28,-21891.47,4441.07
25,2439,-0.043556,-0.021486,0.962549,7499.71,-14244.49,6920.06
26,2539,0.047970,-0.049639,0.940788,4567.72,-5144.48,8676.07
27,2649,0.099785,-0.063096,0.930329,1639.70,6150.50,8338.05
28,2749,0.139488,-0.085318,0.924442,-602.28,1408.52,1504.07
29,2849,0.184479,-0.117391,0.920665,2882.73,453.53,-304.92
30,2949,0.153342,-0.199877,1.092018,100.72,13801.52,2876.07
31,3059,0.152968,-0.190670,1.084253,7471.72,10662.51,996.07
32,3159,0.142909,-0.179273,1.063407,13804.72,19517.52,1592.07
33,3259,0.156973,-0.162902,1.060886,2575.72,355.52,-3589.93
34,3359,0.068182,-0.108300,1.037338,515.73,-147.47,-1229.92
35,3469,0.029698,-0.074926,1.085951,4911.72,5265.52,-583.93
36,3569,0.105933,-0.064832,1.128553,-3349.29,791.51,-273.94
37,3669,0.038550,-0.090273,1.211511,1754.72,3701.52,-2417.93
38,3769,-0.054853,-0.074636,1.166120,-2015.28,-3899.48,-334.93
39,3879,-0.101891,-0.055229,1.135430,-1407.28,-14829.48,1417.07
40,3979,-0.074929,-0.065302,1.086271,-571.28,-2276.48,3278.07
41,4079,-0.065232,-0.085014,1.076201,197.72,-191.48,762.07
42,4189,-0.066548,-0.073389,1.069710,-28.29,-519.49,222.06
43,4289,-0.057651,-0.053125,1.059377,114.72,28.52,-246.93
44,4389,-0.049612,-0.040131,1.049953,1.71,59.51,-107.94
45,4489,-0.044243,-0.030697,1.042712,8.72,-0.48,-29.93
46,4589,-0.038801,-0.022825,1.036685,7.72,-15.48,2.07
47,4699,-0.033352,-0.018239,1.031782,11.72,-24.48,4.07
48,4799,-0.028920,-0.014377,1.026955,11.73,-13.47,-8.92
49,4899,-0.025154,-0.010381,1.023347,3.73,-18.47,-1.92
50,4999,-0.021239,-0.007478,1.020408,-0.28,-16.48,8.07
1,0,-0.001725,0.055105,0.990822,1.73,-13.47,0.08
2,99,-0.002752,0.102439,0.982105,-7.26,-14.46,1.09
3,199,-0.004284,0.142453,0.973872,3.73,-13.47,-6.92
4,299,-0.006099,0.176703,0.967130,4.74,-15.46,-0.91
5,399,-0.008044,0.206109,0.961711,1.73,-7.47,10.08
6,499,-0.008508,0.230902,0.957287,-1.27,-7.47,-4.92
7,599,-0.002493,0.189519,0.972955,-561.27,357.53,472.08
8,699,0.032099,0.258695,0.969555,-8446.27,5792.53,-2286.92
9,799,0.049529,0.224954,1.005556,-16795.25,-1497.45,-1801.90
10,899,0.018731,0.220315,0.958393,-6535.26,-319.46,-2142.91
11,999,0.005939,0.164224,0.985009,-577.27,95.53,-340.92
12,1109,0.000466,0.132806,0.986301,-21.27,-61.47,75.08
13,1209,-0.004003,0.103958,0.987161,4.72,-42.48,45.07
14,1309,-0.006354,0.078888,0.987618,10.73,-17.47,-4.92
15,1419,-0.008829,0.058439,0.989068,3.73,-29.47,4.08
16,1519,-0.010109,0.040527,0.989458,2.73,-11.47,-4.92
17,1619,-0.044521,0.045956,0.971260,-4041.25,-7913.46,164.10
18,1719,-0.129949,0.033047,0.882567,7169.73,-15705.47,-50.92
19,1829,-0.052764,-0.006380,0.899793,2581.73,-7289.47,5121.08
20,1929,0.028351,-0.028339,0.886639,1851.71,1837.51,5510.06
21,2029,0.072746,-0.045777,0.902083,438.73,1775.53,3284.08
22,2139,0.110994,-0.071422,0.913415,-719.27,1088.53,647.08
23,2239,0.143779,-0.071228,0.861744,1583.73,14629.53,4001.08
24,2339,0.128910,-0.104078,0.892402,6422.71,7917.51,1473.06
25,2439,0.124438,-0.109423,0.907695,9432.74,13302.54,1021.09
26,2539,-0.205750,0.209151,0.642886,7546.72,4321.52,-1614.93
27,2649,-0.231709,0.199247,0.706336,970.72,-347.48,-2950.93
28,2749,-0.238119,0.190187,0.735989,-159.28,-232.48,292.07
29,2849,-0.226282,0.177360,0.824750,4947.73,5663.53,-591.92
30,2949,-0.107053,0.164003,0.884413,-2788.28,2175.52,-488.93
31,3059,-0.169003,0.198536,0.916743,2226.72,3589.52,-1513.93
32,3159,-0.221220,0.166732,0.952500,-1273.27,-8026.47,-1236.92
33,3259,-0.235227,0.156709,0.949147,-1512.27,-15394.47,-316.92
34,3359,-0.185866,0.123598,0.938240,-947.27,-1766.47,2046.08
35,3469,-0.162238,0.072823,0.958888,578.72,-577.48,488.07
36,3569,-0.129502,0.069617,0.966992,-18.28,92.52,-265.93
37,3669,-0.103764,0.058725,0.973238,31.71,-3.49,-62.94
38,3769,-0.091573,0.050950,0.977193,-1.27,-11.47,-71.92
39,3879,-0.076669,0.043829,0.981122,6.73,-18.47,9.08
40,3979,-0.066125,0.038637,0.984462,3.71,-12.49,-17.94
41,4079,-0.057621,0.033637,0.987355,7.71,-23.49,29.06
42,4189,-0.048854,0.030120,0.989357,13.72,-15.48,-20.93
43,4289,-0.042848,0.025739,0.990931,4.72,-15.48,0.07
44,4389,-0.036150,0.023315,0.992507,-4.27,-14.47,16.08
45,4489,-0.031190,0.020742,0.993882,3.73,-17.47,-4.92
46,4589,-0.029170,0.018665,0.994631,3.72,-26.48,-13.93
47,4699,-0.025312,0.016752,0.995486,3.70,-19.50,13.05
48,4799,-0.021739,0.014981,0.997367,4.73,-23.47,28.08
49,4899,-0.017842,0.013731,0.998270,4.72,-3.48,0.07
50,4999,-0.016049,0.013273,0.998763,5.72,-17.48,-12.93
1,0,-0.002312,0.074990,0.981007,-51.29,-4.49,-25.94
2,99,-0.004605,0.138567,0.964516,1.73,-9.47,-10.92
3,199,-0.005859,0.193029,0.950004,40.74,-26.46,22.09
4,299,-0.007291,0.239230,0.937980,-29.26,1.54,-54.91
5,399,-0.009241,0.278153,0.926899,31.74,-33.46,28.09
6,499,-0.010019,0.311916,0.916967,1.75,-12.45,-2.90
7,609,-0.011284,0.339716,0.910576,-13.26,-12.46,1.09
8,709,-0.011793,0.364280,0.904064,3.73,-17.47,23.08
9,809,-0.012573,0.384794,0.898400,-34.26,2.54,-23.91
10,909,-0.013510,0.400729,0.895160,11.74,-26.46,24.09
11,1009,0.006292,0.450803,0.789538,-29137.27,-1023.47,81.08
12,1119,-0.030306,0.429480,0.849814,-18327.26,4055.54,-805.91
13,1219,-0.011555,0.337217,0.891984,-11300.25,-7708.45,-2929.90
14,1319,-0.030443,0.264341,0.957255,-3563.27,-771.47,-2174.92
15,1429,-0.033241,0.217558,0.962160,-15.26,51.54,-143.91
16,1529,-0.032690,0.177444,0.967173,35.73,28.53,-67.92
17,1629,-0.031452,0.143640,0.971983,-3.26,-18.46,-8.91
18,1729,-0.030913,0.113168,0.977884,13.75,-0.45,0.10
19,1839,-0.030895,0.087101,0.981050,12.71,-13.49,-16.94
20,1939,-0.065284,0.094040,0.968159,-1223.25,-2078.45,-267.90
21,2039,-0.115517,0.073735,0.995746,-2629.26,-13237.46,2950.09
22,2149,-0.084241,0.045948,0.949761,-3321.27,-18792.47,11397.08
23,2249,0.027342,0.001089,1.000304,2637.73,-3000.47,12010.08
24,2349,0.121180,-0.029058,0.969803,4731.74,3228.54,9914.09
25,2449,0.176058,-0.064278,0.971087,1027.73,1765.53,3459.08
26,2549,0.202691,-0.093519,0.982085,-106.27,749.53,253.08
27,2659,0.099096,-0.221518,1.144225,-135.27,11951.53,2205.08
28,2759,0.107922,-0.212469,1.126835,7139.75,10060.55,724.10
29,2859,0.110535,-0.203716,1.105572,12862.75,18032.55,1766.10
30,2959,-0.193103,-0.041112,1.152170,3206.73,2148.53,-2962.92
31,3069,-0.223523,-0.004395,1.115095,298.73,-21.47,-592.92
32,3169,-0.231563,0.018466,1.091729,-28.27,-61.47,101.08
33,3269,-0.230743,0.072376,1.011571,3417.75,3191.55,-2195.90
34,3369,-0.207104,0.150371,0.959569,-2831.26,11129.54,-1305.91
35,3479,-0.288927,0.112261,0.989725,-3706.27,-5377.47,-2524.92
36,3579,-0.317003,0.105574,0.976705,-1609.27,-9540.47,1163.08
37,3679,-0.242558,0.092915,0.976863,4293.73,-6350.47,3852.08
38,3779,-0.193617,0.033997,1.023120,-622.27,-913.47,3411.08
39,3889,-0.159104,0.025134,1.022669,-277.27,-226.47,158.08
40,3989,-0.143354,0.031737,1.017140,44.73,10.53,-528.92
41,4089,-0.127457,0.029238,1.015370,15.74,-15.46,-11.91
42,4199,-0.108196,0.026857,1.013628,-0.26,-13.46,-21.91
43,4299,-0.093600,0.024375,1.012715,8.74,-7.46,35.09
44,4399,-0.078868,0.021552,1.011261,4.73,-13.47,31.08
45,4499,-0.066584,0.020452,1.009567,12.75,-13.45,6.10
46,4599,-0.057479,0.018254,1.008787,-0.27,-12.47,-8.92
47,4709,-0.049209,0.017685,1.008124,7.74,-14.46,0.09
48,4809,-0.043040,0.016781,1.005967,7.74,-2.46,1.09
49,4909,-0.036148,0.015792,1.005269,4.74,-14.46,16.09
50,5009,-0.030913,0.015538,1.004584,1.73,-0.47,-3.92
1,0,-0.002640,0.075027,0.980184,13.75,-6.45,-17.90
2,99,-0.005415,0.139002,0.962315,-1.24,-13.44,0.11
3,199,-0.007096,0.193583,0.946522,-1.24,-19.44,20.11
4,299,-0.009422,0.238895,0.932585,-12.24,-4.44,-27.89
5,399,-0.010593,0.278235,0.922460,13.77,-50.43,26.12
6,499,-0.011662,0.312388,0.914183,-35.23,-6.43,-13.88
7,599,-0.013047,0.341034,0.906489,5.76,-12.44,13.11
8,699,-0.040774,0.363954,0.824326,-1383.24,-748.44,382.11
9,799,0.018604,0.193959,1.010131,-8220.23,-846.43,700.12
10,899,-0.023337,0.193879,1.105671,-15380.23,538.57,-1468.88
11,999,0.100553,0.093469,1.168314,-9142.23,-4609.43,-3035.88
12,1109,0.062744,0.046297,1.169412,-1892.24,-477.44,-1802.89
13,1209,0.043313,0.031397,1.142329,-47.25,-37.45,34.10
14,1309,0.031723,0.018347,1.120189,7.77,-45.43,62.12
15,1419,0.021926,0.006999,1.101772,0.76,-20.44,9.11
16,1519,0.013617,-0.002666,1.087033,0.77,-17.43,15.12
17,1619,0.006353,-0.010625,1.073773,7.77,-11.43,0.12
18,1719,-0.015550,0.005334,1.026503,-5373.23,-7191.43,-558.88
19,1829,0.007489,-0.014976,1.011958,-2506.24,-20840.43,4517.11
20,1929,0.117874,-0.116284,1.145768,4130.75,-6892.45,10573.10
21,2029,0.143659,-0.111705,1.060764,5243.76,-4927.44,8605.11
22,2139,0.190735,-0.125463,1.054483,1638.76,4235.56,7434.11
23,2239,0.210352,-0.135382,1.034789,-583.24,1374.56,1011.11
24,2339,0.247515,-0.086116,0.926698,268.76,10609.56,3007.11
25,2439,0.240213,-0.079488,0.839911,6682.77,8433.57,1952.12
26,2539,0.226957,-0.091982,0.865220,8041.76,11672.56,653.11
27,2649,0.206972,-0.098573,0.876754,16322.75,23567.55,2324.10
28,2749,0.101784,-0.037159,0.840891,726.76,-680.44,-3537.89
29,2849,0.023489,-0.003542,0.854573,107.78,-165.42,-933.87
30,2949,-0.004555,0.020546,0.874112,5600.76,5788.56,-885.89
31,3059,0.003340,0.079015,0.922160,-521.24,9422.56,-1023.89
32,3159,-0.074453,0.137393,0.905267,-771.24,1725.56,-2385.89
33,3259,-0.140778,0.121170,0.941940,-596.22,-7828.42,1364.13
34,3359,-0.133764,0.102985,0.952751,-1953.25,-15629.45,1331.10
35,3469,-0.100500,0.072972,0.941029,-878.23,-598.43,3038.12
36,3569,-0.081491,0.021130,1.009728,-78.22,-577.42,2336.13
37,3669,-0.061909,0.021431,0.996729,-423.23,-85.43,866.12
38,3769,-0.055116,0.014985,0.996777,88.78,-17.42,296.13
39,3879,-0.044159,0.011373,0.996377,-7.23,-7.43,-36.88
40,3979,-0.041530,0.010190,1.000414,-14.23,4.57,-50.88
41,4079,-0.032758,0.007920,0.998974,8.76,-13.44,53.11
42,4189,-0.029568,0.008572,0.998978,8.77,-9.43,-16.88
43,4289,-0.026693,0.008889,1.000006,9.76,-19.44,-1.89
44,4389,-0.022746,0.009231,1.001045,7.77,-18.43,4.12
45,4489,-0.021425,0.009541,1.001360,9.77,-21.43,-6.88
46,4589,-0.017482,0.009877,1.001756,7.76,-16.44,19.11
47,4699,-0.015942,0.009320,1.001763,6.77,-13.43,-1.88
48,4799,-0.014140,0.009213,1.001824,4.77,-5.43,8.12
49,4899,-0.011967,0.008885,1.001657,3.76,-18.44,-5.89
50,4999,-0.011713,0.009044,1.001404,12.76,-19.44,9.11
1,0,-0.003281,0.073984,0.981813,19.75,-23.45,24.10
2,99,-0.005575,0.137346,0.965238,8.77,-12.43,-16.88
3,199,-0.007854,0.191589,0.951351,22.78,-9.42,-12.87
4,299,-0.009352,0.238281,0.939692,46.75,-30.45,29.10
5,399,-0.010845,0.277384,0.928831,11.77,10.57,-31.88
6,499,-0.012481,0.310328,0.918976,33.77,-11.43,14.12
7,599,-0.013633,0.339099,0.910526,-1.24,-3.44,-18.89
8,699,-0.014630,0.363262,0.904278,-5.23,-18.43,7.12
9,799,-0.015588,0.383563,0.899168,-12.22,-16.42,6.13
10,899,-0.015944,0.400672,0.894861,-24.23,-5.43,-4.88
11,999,-0.016467,0.415507,0.891750,11.76,-11.44,13.11
12,1109,-0.017204,0.428209,0.888446,19.76,-11.44,-14.89
13,1209,-0.017813,0.439097,0.885198,10.76,-20.44,4.11
14,1309,-0.010657,0.451721,0.746189,-8642.23,443.57,-198.88
15,1419,0.046071,0.499896,0.610471,677.76,7740.56,1223.11
16,1519,0.040238,0.454108,0.624731,-12302.24,1178.56,-1649.89
17,1619,0.036103,0.335043,0.729430,-4513.24,4305.56,-1874.89
18,1719,0.020138,0.279559,0.773601,-652.25,-64.45,-39.90
19,1829,0.008948,0.228992,0.805304,38.77,-82.43,20.12
20,1929,-0.000948,0.187402,0.833681,12.76,-6.44,8.11
21,2029,-0.008463,0.152361,0.858423,-7.24,-19.44,8.11
22,2139,-0.013056,0.122503,0.880205,11.77,-14.43,13.12
23,2239,-0.016905,0.096666,0.899287,18.76,-8.44,-7.89
24,2339,-0.028398,0.063096,0.936362,-4532.24,-6733.44,2223.11
25,2439,-0.049080,0.056168,0.903717,-3038.22,-21390.42,3764.13
26,2539,0.187290,-0.075166,1.077613,-373.23,-9553.43,10280.12
27,2649,0.219105,-0.072140,1.007098,4142.76,-3787.44,8852.11
28,2749,0.247431,-0.080407,0.969299,2364.77,5989.57,9068.12
29,2849,0.255522,-0.097102,0.955205,-347.22,1494.58,1217.13
30,2949,0.314274,-0.097689,0.910889,-165.23,14266.57,4216.12
31,3059,0.279563,-0.126385,0.927291,5992.77,7789.57,902.12
32,3159,0.249362,-0.132284,0.942807,9133.76,12611.56,954.11
33,3259,0.225707,-0.124993,0.927231,18151.77,26663.57,4107.12
34,3359,0.134115,-0.072158,0.926112,290.77,-713.43,-2782.88
35,3469,0.073052,-0.041495,0.924557,-81.24,-190.44,261.11
36,3569,-0.015417,0.052556,0.899395,1313.76,3412.56,-2363.89
37,3669,-0.052457,0.108476,0.845963,-9640.24,9652.56,-3517.89
38,3769,-0.147624,0.066982,0.890525,-2998.23,-5928.43,-1952.88
39,3879,-0.228279,0.052495,0.884475,-2272.23,-13556.43,1443.12
40,3979,-0.212680,0.088228,0.814129,401.77,-6573.43,3948.12
41,4079,-0.173805,0.037485,0.883296,703.77,-1154.43,2928.12
42,4189,-0.148524,0.017919,0.908872,-649.23,-607.43,701.12
43,4289,-0.124069,0.022309,0.926163,-103.22,-7.42,-538.87
44,4389,-0.102459,0.016921,0.937875,-14.24,-12.44,5.11
45,4489,-0.088008,0.014978,0.948252,23.78,15.58,-62.87
46,4589,-0.077080,0.015085,0.956303,1.78,-20.42,-21.87
47,4699,-0.064898,0.014461,0.963495,1.77,-23.43,7.12
48,4799,-0.054782,0.013968,0.969204,12.76,-8.44,-10.89
49,4899,-0.047098,0.013860,0.974277,2.76,-12.44,-2.89
50,4999,-0.040769,0.014042,0.977985,3.77,-18.43,4.12
1,0,-0.002163,0.074918,0.980312,7.79,-21.41,11.14
2,99,-0.004222,0.138342,0.963925,-55.24,6.56,-27.89
3,199,-0.007253,0.192070,0.949777,-11.21,-22.41,15.14
4,299,-0.008749,0.238068,0.937714,-47.21,-10.41,-3.86
5,399,-0.010094,0.276854,0.928029,-22.22,-21.42,6.13
6,499,-0.010945,0.310134,0.919411,11.78,-29.42,25.13
7,599,-0.012272,0.338441,0.912617,3.77,-0.43,-30.88
8,699,-0.013455,0.362538,0.905909,54.77,-16.43,4.12
9,799,-0.014094,0.382526,0.900481,29.78,-12.42,-16.87
10,899,-0.015077,0.399790,0.895099,28.78,-17.42,-11.87
11,999,-0.015308,0.414685,0.890762,30.78,-24.42,23.13
12,1109,-0.016054,0.427638,0.888137,-30.22,-7.42,-17.87
13,1209,-0.016689,0.438539,0.885064,-3.24,-24.44,13.11
14,1309,-0.016733,0.447200,0.882690,-19.23,-11.43,-2.88
15,1419,-0.017211,0.454379,0.880562,-1.23,-16.43,-5.88
16,1519,-0.017397,0.461433,0.879467,10.77,-8.43,34.12
17,1619,-0.014185,0.477482,0.728372,-8838.22,455.58,-417.87
18,1719,0.042616,0.475303,0.598586,7250.79,2786.59,696.14
19,1829,0.035635,0.430934,0.609374,-12516.22,439.58,-1475.87
20,1929,0.039296,0.347938,0.695192,-4149.22,4455.58,-408.87
21,2029,0.030396,0.273198,0.752555,-595.23,103.57,-125.88
22,2139,0.022611,0.223274,0.786921,-17.23,-11.43,-49.88
23,2239,0.013999,0.182432,0.817396,28.78,16.58,-24.87
24,2339,0.006769,0.147349,0.844251,14.76,-9.44,-8.89
25,2439,-0.000658,0.117108,0.868049,7.77,-0.43,-20.88
26,2539,-0.005634,0.091587,0.887728,3.78,-12.42,-3.87
27,2649,-0.003125,0.035158,0.954186,-3659.22,-6287.42,742.13
28,2749,0.040298,0.014788,0.936134,-1821.22,-17858.42,5795.13
29,2849,0.219773,-0.102923,1.101771,-264.21,-9753.41,12912.14
30,2949,0.227528,-0.126586,1.078060,3770.79,-2276.41,9893.14
31,3059,0.298609,-0.143844,1.067354,2708.78,5758.58,8089.13
32,3159,0.313361,-0.168272,1.045272,-4098.22,5923.58,2349.13
33,3259,0.292209,-0.171732,0.983729,3741.79,6581.59,1997.14
34,3359,0.256707,-0.164126,0.977377,4268.79,6222.59,158.14
35,3469,0.235850,-0.157515,0.979320,7184.78,10419.58,618.13
36,3569,0.211987,-0.149753,0.973721,13860.79,19638.59,2367.14
37,3669,0.043554,-0.024851,0.904453,3442.79,2850.59,-2727.86
38,3769,-0.027746,0.016020,0.895912,188.79,-81.41,-717.86
39,3879,-0.025234,0.035874,0.993937,2987.79,3435.59,-123.86
40,3979,-0.015811,0.022172,0.982172,-7139.21,-15295.41,-2014.86
41,4079,-0.075991,-0.043785,1.092728,-1433.21,2137.59,-2179.86
42,4189,-0.161182,-0.049201,1.091028,-2742.21,-4188.41,703.14
43,4289,-0.193972,-0.031648,1.059682,-2741.23,-12687.43,3523.12
44,4389,-0.140012,-0.029290,1.025073,-1494.21,-3656.41,5970.15
45,4489,-0.099879,-0.032852,0.995765,-730.23,-895.43,3205.12
46,4589,-0.077118,-0.032456,1.006687,-245.23,-185.43,-99.88
47,4699,-0.068464,-0.022414,1.007712,-18.23,-46.43,54.12
48,4799,-0.056952,-0.016204,1.009060,-10.23,6.57,-83.88
49,4899,-0.046398,-0.011530,1.007257,-8.22,-16.42,10.13
50,4999,-0.040264,-0.008106,1.007007,5.78,-7.42,-11.87
1,0,-0.001779,0.074314,0.979708,18.77,-17.43,-3.88
